{
  "domains": [
    {
      "name": "AE",
      "label": "AE Domain",
      "structure": "",
      "purpose": "",
      "keys": [],
      "variables": [
        {
          "domain": "AE",
          "name": "STUDYID",
          "label": "Study Identifier",
          "data_type": "Char",
          "length": null,
          "format": null,
          "codelist": null,
          "codelist_values": [],
          "origin": "Protocol",
          "role": null,
          "core": "Req",
          "description": null,
          "derivation": "Standard STUDYID population logic",
          "plain_english": null,
          "approval": {
            "status": "approved",
            "reviewed_by": "admin",
            "reviewed_at": "2025-12-12T05:31:28.029684",
            "comment": "CDISC auto-approved: Exact match in SDTM v3.4 - AE.STUDYID (100%)"
          }
        },
        {
          "domain": "AE",
          "name": "DOMAIN",
          "label": "Domain Abbreviation",
          "data_type": "Char",
          "length": null,
          "format": null,
          "codelist": "DOMAIN.AE",
          "codelist_values": [],
          "origin": "Assigned",
          "role": null,
          "core": "Req",
          "description": null,
          "derivation": "\"AE\"",
          "plain_english": null,
          "approval": {
            "status": "approved",
            "reviewed_by": "admin",
            "reviewed_at": "2025-12-12T05:31:28.079702",
            "comment": "CDISC auto-approved: Exact match in SDTM v3.4 - AE.DOMAIN (100%)"
          }
        },
        {
          "domain": "AE",
          "name": "USUBJID",
          "label": "Unique Subject Identifier",
          "data_type": "Char",
          "length": null,
          "format": null,
          "codelist": null,
          "codelist_values": [],
          "origin": "Derived",
          "role": null,
          "core": "Exp",
          "description": null,
          "derivation": "Standard USUBJID population logic",
          "plain_english": null,
          "approval": {
            "status": "approved",
            "reviewed_by": "admin",
            "reviewed_at": "2025-12-12T05:31:28.132243",
            "comment": "CDISC auto-approved: Exact match in SDTM v3.4 - AE.USUBJID (100%)"
          }
        },
        {
          "domain": "AE",
          "name": "POOLID",
          "label": "Pool Identifier",
          "data_type": "Char",
          "length": null,
          "format": null,
          "codelist": null,
          "codelist_values": [],
          "origin": "Assigned",
          "role": null,
          "core": "Model Permissible",
          "description": null,
          "derivation": "_null_",
          "plain_english": null,
          "approval": {
            "status": "approved",
            "reviewed_by": "admin",
            "reviewed_at": "2025-12-12T05:31:28.183348",
            "comment": "CDISC auto-approved: Name match in SDTM v3.4 (defined in RELSUB) (85%)"
          }
        },
        {
          "domain": "AE",
          "name": "SPDEVID",
          "label": "Sponsor Device Identifier",
          "data_type": "Char",
          "length": null,
          "format": null,
          "codelist": null,
          "codelist_values": [],
          "origin": "Assigned",
          "role": null,
          "core": "Model Permissible",
          "description": null,
          "derivation": "_null_",
          "plain_english": null,
          "approval": {
            "status": "approved",
            "reviewed_by": "admin",
            "reviewed_at": "2025-12-12T05:31:28.233414",
            "comment": "CDISC auto-approved: Exact match in SDTM v3.4 - AE.SPDEVID (100%)"
          }
        },
        {
          "domain": "AE",
          "name": "NHOID",
          "label": "Non-Host Organism Identifier",
          "data_type": "Char",
          "length": null,
          "format": null,
          "codelist": null,
          "codelist_values": [],
          "origin": "Assigned",
          "role": null,
          "core": "Model Permissible",
          "description": null,
          "derivation": "_null_",
          "plain_english": null,
          "approval": {
            "status": "approved",
            "reviewed_by": "admin",
            "reviewed_at": "2025-12-12T05:31:28.287775",
            "comment": "CDISC auto-approved: Name match in SDTM v3.4 (defined in GF) (85%)"
          }
        },
        {
          "domain": "AE",
          "name": "FOCID",
          "label": "Focus of Study-Specific Interest",
          "data_type": "Char",
          "length": null,
          "format": null,
          "codelist": null,
          "codelist_values": [],
          "origin": "Assigned",
          "role": null,
          "core": "Model Permissible",
          "description": null,
          "derivation": "_null_",
          "plain_english": null,
          "approval": {
            "status": "approved",
            "reviewed_by": "admin",
            "reviewed_at": "2025-12-12T05:31:28.346889",
            "comment": "CDISC auto-approved: Name match in SDTM v3.4 (defined in MB) (85%)"
          }
        },
        {
          "domain": "AE",
          "name": "AESEQ",
          "label": "Sequence Number",
          "data_type": "Num",
          "length": null,
          "format": null,
          "codelist": null,
          "codelist_values": [],
          "origin": "Derived",
          "role": null,
          "core": "Req",
          "description": null,
          "derivation": "Standard --SEQ population logic",
          "plain_english": null,
          "approval": {
            "status": "approved",
            "reviewed_by": "admin",
            "reviewed_at": "2025-12-12T05:31:28.412669",
            "comment": "CDISC auto-approved: Exact match in SDTM v3.4 - AE.AESEQ (100%)"
          }
        },
        {
          "domain": "AE",
          "name": "AEGRPID",
          "label": "Group ID",
          "data_type": "Char",
          "length": null,
          "format": null,
          "codelist": null,
          "codelist_values": [],
          "origin": "Assigned",
          "role": null,
          "core": "Perm",
          "description": null,
          "derivation": "_null_",
          "plain_english": null,
          "approval": {
            "status": "approved",
            "reviewed_by": "admin",
            "reviewed_at": "2025-12-12T05:31:28.474265",
            "comment": "CDISC auto-approved: Exact match in SDTM v3.4 - AE.AEGRPID (100%)"
          }
        },
        {
          "domain": "AE",
          "name": "AEREFID",
          "label": "Reference ID",
          "data_type": "Char",
          "length": null,
          "format": null,
          "codelist": null,
          "codelist_values": [],
          "origin": "Assigned",
          "role": null,
          "core": "Perm",
          "description": null,
          "derivation": "_null_",
          "plain_english": null,
          "approval": {
            "status": "approved",
            "reviewed_by": "admin",
            "reviewed_at": "2025-12-12T05:31:28.539225",
            "comment": "CDISC auto-approved: Exact match in SDTM v3.4 - AE.AEREFID (100%)"
          }
        },
        {
          "domain": "AE",
          "name": "AERECID",
          "label": "Invariant Record Identifier",
          "data_type": "Char",
          "length": null,
          "format": null,
          "codelist": null,
          "codelist_values": [],
          "origin": "Assigned",
          "role": null,
          "core": "Model Permissible",
          "description": null,
          "derivation": "_null_",
          "plain_english": null,
          "approval": {
            "status": "approved",
            "reviewed_by": "admin",
            "reviewed_at": "2025-12-12T05:38:48.073911",
            "comment": "Bulk approved"
          }
        },
        {
          "domain": "AE",
          "name": "AESPID",
          "label": "Sponsor-Defined Identifier",
          "data_type": "Char",
          "length": null,
          "format": null,
          "codelist": null,
          "codelist_values": [],
          "origin": "Assigned",
          "role": null,
          "core": "Perm",
          "description": null,
          "derivation": "Set to AE.RECORDPOSITION.",
          "plain_english": null,
          "approval": {
            "status": "approved",
            "reviewed_by": "admin",
            "reviewed_at": "2025-12-12T05:31:28.628960",
            "comment": "CDISC auto-approved: Exact match in SDTM v3.4 - AE.AESPID (100%)"
          }
        },
        {
          "domain": "AE",
          "name": "AELNKID",
          "label": "Link ID",
          "data_type": "Char",
          "length": null,
          "format": null,
          "codelist": null,
          "codelist_values": [],
          "origin": "Assigned",
          "role": null,
          "core": "Model Permissible",
          "description": null,
          "derivation": "_null_",
          "plain_english": null,
          "approval": {
            "status": "approved",
            "reviewed_by": "admin",
            "reviewed_at": "2025-12-12T05:38:48.073911",
            "comment": "Bulk approved"
          }
        },
        {
          "domain": "AE",
          "name": "AELNKGRP",
          "label": "Link Group ID",
          "data_type": "Char",
          "length": null,
          "format": null,
          "codelist": null,
          "codelist_values": [],
          "origin": "Assigned",
          "role": null,
          "core": "Model Permissible",
          "description": null,
          "derivation": "_null_",
          "plain_english": null,
          "approval": {
            "status": "approved",
            "reviewed_by": "admin",
            "reviewed_at": "2025-12-12T05:38:48.073911",
            "comment": "Bulk approved"
          }
        },
        {
          "domain": "AE",
          "name": "AETERM",
          "label": "Reported Term for the Adverse Event",
          "data_type": "Char",
          "length": null,
          "format": null,
          "codelist": null,
          "codelist_values": [],
          "origin": "CRF",
          "role": null,
          "core": "Req",
          "description": null,
          "derivation": "Set to AE.AETERM in uppercase",
          "plain_english": null,
          "approval": {
            "status": "approved",
            "reviewed_by": "admin",
            "reviewed_at": "2025-12-12T05:31:28.741347",
            "comment": "CDISC auto-approved: Exact match in SDTM v3.4 - AE.AETERM (100%)"
          }
        },
        {
          "domain": "AE",
          "name": "AEMODIFY",
          "label": "Modified Reported Term",
          "data_type": "Char",
          "length": null,
          "format": null,
          "codelist": null,
          "codelist_values": [],
          "origin": "Assigned",
          "role": null,
          "core": "Perm",
          "description": null,
          "derivation": "_null_",
          "plain_english": null,
          "approval": {
            "status": "approved",
            "reviewed_by": "admin",
            "reviewed_at": "2025-12-12T05:31:28.792620",
            "comment": "CDISC auto-approved: Exact match in SDTM v3.4 - AE.AEMODIFY (100%)"
          }
        },
        {
          "domain": "AE",
          "name": "AELLT",
          "label": "Lowest Level Term",
          "data_type": "Char",
          "length": null,
          "format": null,
          "codelist": "MedDRA",
          "codelist_values": [],
          "origin": "Assigned",
          "role": null,
          "core": "Exp",
          "description": null,
          "derivation": "Set to AE_CODED.LLT_NAME.",
          "plain_english": null,
          "approval": {
            "status": "approved",
            "reviewed_by": "admin",
            "reviewed_at": "2025-12-12T05:31:28.843112",
            "comment": "CDISC auto-approved: Exact match in SDTM v3.4 - AE.AELLT (100%)"
          }
        },
        {
          "domain": "AE",
          "name": "AELLTCD",
          "label": "Lowest Level Term Code",
          "data_type": "Num",
          "length": null,
          "format": null,
          "codelist": "MedDRA",
          "codelist_values": [],
          "origin": "Assigned",
          "role": null,
          "core": "Exp",
          "description": null,
          "derivation": "Set to AE_CODED.LLT_CODE in numeric format.",
          "plain_english": null,
          "approval": {
            "status": "approved",
            "reviewed_by": "admin",
            "reviewed_at": "2025-12-12T05:31:28.893399",
            "comment": "CDISC auto-approved: Exact match in SDTM v3.4 - AE.AELLTCD (100%)"
          }
        },
        {
          "domain": "AE",
          "name": "AEDECOD",
          "label": "Dictionary-Derived Term",
          "data_type": "Char",
          "length": null,
          "format": null,
          "codelist": "MedDRA",
          "codelist_values": [],
          "origin": "Assigned",
          "role": null,
          "core": "Req",
          "description": null,
          "derivation": "Set to AE_CODED.PT_NAME.",
          "plain_english": null,
          "approval": {
            "status": "approved",
            "reviewed_by": "admin",
            "reviewed_at": "2025-12-12T05:31:28.943907",
            "comment": "CDISC auto-approved: Exact match in SDTM v3.4 - AE.AEDECOD (100%)"
          }
        },
        {
          "domain": "AE",
          "name": "AEPTCD",
          "label": "Preferred Term Code",
          "data_type": "Num",
          "length": null,
          "format": null,
          "codelist": "MedDRA",
          "codelist_values": [],
          "origin": "Assigned",
          "role": null,
          "core": "Exp",
          "description": null,
          "derivation": "Set to AE_CODED.PT_CODE in numeric format.",
          "plain_english": null,
          "approval": {
            "status": "approved",
            "reviewed_by": "admin",
            "reviewed_at": "2025-12-12T05:31:28.995503",
            "comment": "CDISC auto-approved: Exact match in SDTM v3.4 - AE.AEPTCD (100%)"
          }
        },
        {
          "domain": "AE",
          "name": "AEHLT",
          "label": "High Level Term",
          "data_type": "Char",
          "length": null,
          "format": null,
          "codelist": "MedDRA",
          "codelist_values": [],
          "origin": "Assigned",
          "role": null,
          "core": "Exp",
          "description": null,
          "derivation": "Set to AE_CODED.HLT_NAME.",
          "plain_english": null,
          "approval": {
            "status": "approved",
            "reviewed_by": "admin",
            "reviewed_at": "2025-12-12T05:31:29.047080",
            "comment": "CDISC auto-approved: Exact match in SDTM v3.4 - AE.AEHLT (100%)"
          }
        },
        {
          "domain": "AE",
          "name": "AEHLTCD",
          "label": "High Level Term Code",
          "data_type": "Num",
          "length": null,
          "format": null,
          "codelist": "MedDRA",
          "codelist_values": [],
          "origin": "Assigned",
          "role": null,
          "core": "Exp",
          "description": null,
          "derivation": "Set to AE_CODED.HLT_CODE in numeric format.",
          "plain_english": null,
          "approval": {
            "status": "approved",
            "reviewed_by": "admin",
            "reviewed_at": "2025-12-12T05:31:29.098891",
            "comment": "CDISC auto-approved: Exact match in SDTM v3.4 - AE.AEHLTCD (100%)"
          }
        },
        {
          "domain": "AE",
          "name": "AEHLGT",
          "label": "High Level Group Term",
          "data_type": "Char",
          "length": null,
          "format": null,
          "codelist": "MedDRA",
          "codelist_values": [],
          "origin": "Assigned",
          "role": null,
          "core": "Exp",
          "description": null,
          "derivation": "Set to AE_CODED.HLGT_NAME.",
          "plain_english": null,
          "approval": {
            "status": "approved",
            "reviewed_by": "admin",
            "reviewed_at": "2025-12-12T05:31:29.153894",
            "comment": "CDISC auto-approved: Exact match in SDTM v3.4 - AE.AEHLGT (100%)"
          }
        },
        {
          "domain": "AE",
          "name": "AEHLGTCD",
          "label": "High Level Group Term Code",
          "data_type": "Num",
          "length": null,
          "format": null,
          "codelist": "MedDRA",
          "codelist_values": [],
          "origin": "Assigned",
          "role": null,
          "core": "Exp",
          "description": null,
          "derivation": "Set to AE_CODED.HLGT_CODE in numeric format.",
          "plain_english": null,
          "approval": {
            "status": "approved",
            "reviewed_by": "admin",
            "reviewed_at": "2025-12-12T05:31:29.203718",
            "comment": "CDISC auto-approved: Exact match in SDTM v3.4 - AE.AEHLGTCD (100%)"
          }
        },
        {
          "domain": "AE",
          "name": "AECAT",
          "label": "Category for Adverse Event",
          "data_type": "Char",
          "length": null,
          "format": null,
          "codelist": "(AECAT)",
          "codelist_values": [],
          "origin": "Assigned",
          "role": null,
          "core": "Perm",
          "description": null,
          "derivation": "_null_",
          "plain_english": null,
          "approval": {
            "status": "approved",
            "reviewed_by": "admin",
            "reviewed_at": "2025-12-12T05:31:29.253883",
            "comment": "CDISC auto-approved: Exact match in SDTM v3.4 - AE.AECAT (100%)"
          }
        },
        {
          "domain": "AE",
          "name": "AESCAT",
          "label": "Subcategory for Adverse Event",
          "data_type": "Char",
          "length": null,
          "format": null,
          "codelist": "(AESCAT)",
          "codelist_values": [],
          "origin": "Assigned",
          "role": null,
          "core": "Perm",
          "description": null,
          "derivation": "_null_",
          "plain_english": null,
          "approval": {
            "status": "approved",
            "reviewed_by": "admin",
            "reviewed_at": "2025-12-12T05:31:29.303172",
            "comment": "CDISC auto-approved: Exact match in SDTM v3.4 - AE.AESCAT (100%)"
          }
        },
        {
          "domain": "AE",
          "name": "AEPRESP",
          "label": "Pre-Specified Adverse Event",
          "data_type": "Char",
          "length": null,
          "format": null,
          "codelist": "(Y)",
          "codelist_values": [],
          "origin": "Assigned",
          "role": null,
          "core": "Perm",
          "description": null,
          "derivation": "_null_",
          "plain_english": null,
          "approval": {
            "status": "approved",
            "reviewed_by": "admin",
            "reviewed_at": "2025-12-12T05:31:29.352422",
            "comment": "CDISC auto-approved: Exact match in SDTM v3.4 - AE.AEPRESP (100%)"
          }
        },
        {
          "domain": "AE",
          "name": "AEBODSYS",
          "label": "Body System or Organ Class",
          "data_type": "Char",
          "length": null,
          "format": null,
          "codelist": "MedDRA",
          "codelist_values": [],
          "origin": "Assigned",
          "role": null,
          "core": "Exp",
          "description": null,
          "derivation": "Set to AE_CODED.SOC_NAME.",
          "plain_english": null,
          "approval": {
            "status": "approved",
            "reviewed_by": "admin",
            "reviewed_at": "2025-12-12T05:31:29.401770",
            "comment": "CDISC auto-approved: Exact match in SDTM v3.4 - AE.AEBODSYS (100%)"
          }
        },
        {
          "domain": "AE",
          "name": "AEBDSYCD",
          "label": "Body System or Organ Class Code",
          "data_type": "Num",
          "length": null,
          "format": null,
          "codelist": "MedDRA",
          "codelist_values": [],
          "origin": "Assigned",
          "role": null,
          "core": "Exp",
          "description": null,
          "derivation": "Set to AE_CODED.SOC_CODE in numeric format.",
          "plain_english": null,
          "approval": {
            "status": "approved",
            "reviewed_by": "admin",
            "reviewed_at": "2025-12-12T05:31:29.451053",
            "comment": "CDISC auto-approved: Exact match in SDTM v3.4 - AE.AEBDSYCD (100%)"
          }
        },
        {
          "domain": "AE",
          "name": "AESOC",
          "label": "Primary System Organ Class",
          "data_type": "Char",
          "length": null,
          "format": null,
          "codelist": "MedDRA",
          "codelist_values": [],
          "origin": "Assigned",
          "role": null,
          "core": "Exp",
          "description": null,
          "derivation": "Set to AE_CODED.SOC_NAME.",
          "plain_english": null,
          "approval": {
            "status": "approved",
            "reviewed_by": "admin",
            "reviewed_at": "2025-12-12T05:31:29.501260",
            "comment": "CDISC auto-approved: Exact match in SDTM v3.4 - AE.AESOC (100%)"
          }
        },
        {
          "domain": "AE",
          "name": "AESOCCD",
          "label": "Primary System Organ Class Code",
          "data_type": "Num",
          "length": null,
          "format": null,
          "codelist": "MedDRA",
          "codelist_values": [],
          "origin": "Assigned",
          "role": null,
          "core": "Exp",
          "description": null,
          "derivation": "Set to AE_CODED.SOC_CODE in numeric format.",
          "plain_english": null,
          "approval": {
            "status": "approved",
            "reviewed_by": "admin",
            "reviewed_at": "2025-12-12T05:31:29.552255",
            "comment": "CDISC auto-approved: Exact match in SDTM v3.4 - AE.AESOCCD (100%)"
          }
        },
        {
          "domain": "AE",
          "name": "AELOC",
          "label": "Location of Event",
          "data_type": "Char",
          "length": null,
          "format": null,
          "codelist": "(LOC)",
          "codelist_values": [],
          "origin": "Assigned",
          "role": null,
          "core": "Perm",
          "description": null,
          "derivation": "_null_",
          "plain_english": null,
          "approval": {
            "status": "approved",
            "reviewed_by": "admin",
            "reviewed_at": "2025-12-12T05:31:29.601819",
            "comment": "CDISC auto-approved: Exact match in SDTM v3.4 - AE.AELOC (100%)"
          }
        },
        {
          "domain": "AE",
          "name": "AELAT",
          "label": "Laterality",
          "data_type": "Char",
          "length": null,
          "format": null,
          "codelist": "(LAT)",
          "codelist_values": [],
          "origin": "Assigned",
          "role": null,
          "core": "Model Permissible",
          "description": null,
          "derivation": "_null_",
          "plain_english": null,
          "approval": {
            "status": "approved",
            "reviewed_by": "admin",
            "reviewed_at": "2025-12-12T05:38:48.073911",
            "comment": "Bulk approved"
          }
        },
        {
          "domain": "AE",
          "name": "AEDIR",
          "label": "Directionality",
          "data_type": "Char",
          "length": null,
          "format": null,
          "codelist": "(DIR)",
          "codelist_values": [],
          "origin": "Assigned",
          "role": null,
          "core": "Model Permissible",
          "description": null,
          "derivation": "_null_",
          "plain_english": null,
          "approval": {
            "status": "approved",
            "reviewed_by": "admin",
            "reviewed_at": "2025-12-12T05:38:48.073911",
            "comment": "Bulk approved"
          }
        },
        {
          "domain": "AE",
          "name": "AEPORTOT",
          "label": "Portion or Totality",
          "data_type": "Char",
          "length": null,
          "format": null,
          "codelist": "(PORTOT)",
          "codelist_values": [],
          "origin": "Assigned",
          "role": null,
          "core": "Model Permissible",
          "description": null,
          "derivation": "_null_",
          "plain_english": null,
          "approval": {
            "status": "approved",
            "reviewed_by": "admin",
            "reviewed_at": "2025-12-12T05:38:48.073911",
            "comment": "Bulk approved"
          }
        },
        {
          "domain": "AE",
          "name": "AEPARTY",
          "label": "Accountable Party",
          "data_type": "Char",
          "length": null,
          "format": null,
          "codelist": null,
          "codelist_values": [],
          "origin": "Assigned",
          "role": null,
          "core": "Model Permissible",
          "description": null,
          "derivation": "_null_",
          "plain_english": null,
          "approval": {
            "status": "approved",
            "reviewed_by": "admin",
            "reviewed_at": "2025-12-12T05:38:48.073911",
            "comment": "Bulk approved"
          }
        },
        {
          "domain": "AE",
          "name": "AEPRTYID",
          "label": "Identification of Accountable Party",
          "data_type": "Char",
          "length": null,
          "format": null,
          "codelist": null,
          "codelist_values": [],
          "origin": "Assigned",
          "role": null,
          "core": "Model Permissible",
          "description": null,
          "derivation": "_null_",
          "plain_english": null,
          "approval": {
            "status": "approved",
            "reviewed_by": "admin",
            "reviewed_at": "2025-12-12T05:38:48.073911",
            "comment": "Bulk approved"
          }
        },
        {
          "domain": "AE",
          "name": "AESEV",
          "label": "Severity/Intensity",
          "data_type": "Char",
          "length": null,
          "format": null,
          "codelist": "(AESEV)",
          "codelist_values": [],
          "origin": "Assigned",
          "role": null,
          "core": "Perm",
          "description": null,
          "derivation": "_null_",
          "plain_english": null,
          "approval": {
            "status": "approved",
            "reviewed_by": "admin",
            "reviewed_at": "2025-12-12T05:31:29.779955",
            "comment": "CDISC auto-approved: Exact match in SDTM v3.4 - AE.AESEV (100%)"
          }
        },
        {
          "domain": "AE",
          "name": "AESER",
          "label": "Serious Event",
          "data_type": "Char",
          "length": null,
          "format": null,
          "codelist": "(NY)",
          "codelist_values": [],
          "origin": "CRF",
          "role": null,
          "core": "Exp",
          "description": null,
          "derivation": "Set to \"Y\" if AE.AESER = \"Yes\";\nelse set to \"N\" if AE.AESER = \"No\";",
          "plain_english": null,
          "approval": {
            "status": "approved",
            "reviewed_by": "admin",
            "reviewed_at": "2025-12-12T05:31:29.829588",
            "comment": "CDISC auto-approved: Exact match in SDTM v3.4 - AE.AESER (100%)"
          }
        },
        {
          "domain": "AE",
          "name": "AEACN",
          "label": "Action Taken with Study Treatment",
          "data_type": "Char",
          "length": null,
          "format": null,
          "codelist": "(ACN)",
          "codelist_values": [],
          "origin": "CRF",
          "role": null,
          "core": "Exp",
          "description": null,
          "derivation": "Set to \"DOSE NOT CHANGED\" if AE.AEACN = \"No Action Taken\";\nelse set to \"DRUG WITHDRAWN\" if AE.AEACN = \"Drug Permanently Discontinued\";\nelse set to \"DRUG INTERRUPTED\" if AE.AEACN = \"Infusion Interrupted\";\nelse set to \"TREATMENT CYCLE DELAYED\" if AE.AEACN = \"Treatment Cycle Delayed\";\nelse set to \"NOT APPLICABLE\" if AE.AEACN = \"Not Applicable\".",
          "plain_english": null,
          "approval": {
            "status": "approved",
            "reviewed_by": "admin",
            "reviewed_at": "2025-12-12T05:31:29.913142",
            "comment": "CDISC auto-approved: Exact match in SDTM v3.4 - AE.AEACN (100%)"
          }
        },
        {
          "domain": "AE",
          "name": "AEACNOTH",
          "label": "Other Action Taken",
          "data_type": "Char",
          "length": null,
          "format": null,
          "codelist": null,
          "codelist_values": [],
          "origin": "CRF",
          "role": null,
          "core": "Perm",
          "description": null,
          "derivation": "Set to \"None\" if AE.AEACNO=1;\nelse set to \"Medication\" if AE.AEACNO1=1 and all of (AE.AEACNO2, AE.AEACNO3, AE.AEACNO4)  are equal to 0;\nelse set to \"Non-Drug Treatment\" if AE.AEACNO4=1 and all of (AE.AEACNO1, AE.AEACNO2, AE.AEACNO3)  are equal to 0;\nelse set to \"Hospitalization or Prolonged\" if AE.AEACNO2=1 and all of (AE.AEACNO1, AE.AEACNO3, AE.AEACNO4)  are equal to 0;\nelse set to \"Other\" if AE.AEACNO3=1 and all of (AE.AEACNO1, AE.AEACNO2, AE.AEACNO4)  are equal to 0;\nelse set to \"Multiple\" if more than one of (AE.AEACNO1, AE.AEACNO2, AE.AEACNO3, AE.AEACNO4)  are equal to 1.",
          "plain_english": null,
          "approval": {
            "status": "approved",
            "reviewed_by": "admin",
            "reviewed_at": "2025-12-12T05:31:29.962290",
            "comment": "CDISC auto-approved: Exact match in SDTM v3.4 - AE.AEACNOTH (100%)"
          }
        },
        {
          "domain": "AE",
          "name": "AEACNDEV",
          "label": "Action Taken with Device",
          "data_type": "Char",
          "length": null,
          "format": null,
          "codelist": null,
          "codelist_values": [],
          "origin": "Assigned",
          "role": null,
          "core": "Model Permissible",
          "description": null,
          "derivation": "_null_",
          "plain_english": null,
          "approval": {
            "status": "approved",
            "reviewed_by": "admin",
            "reviewed_at": "2025-12-12T05:31:30.012063",
            "comment": "CDISC auto-approved: Exact match in SDTM v3.4 - AE.AEACNDEV (100%)"
          }
        },
        {
          "domain": "AE",
          "name": "AEREL",
          "label": "Causality",
          "data_type": "Char",
          "length": null,
          "format": null,
          "codelist": null,
          "codelist_values": [],
          "origin": "CRF",
          "role": null,
          "core": "Exp",
          "description": null,
          "derivation": "Set to AE.AEREL in uppercase.",
          "plain_english": null,
          "approval": {
            "status": "approved",
            "reviewed_by": "admin",
            "reviewed_at": "2025-12-12T05:31:30.063659",
            "comment": "CDISC auto-approved: Exact match in SDTM v3.4 - AE.AEREL (100%)"
          }
        },
        {
          "domain": "AE",
          "name": "AERELNST",
          "label": "Relationship to Non-Study Treatment",
          "data_type": "Char",
          "length": null,
          "format": null,
          "codelist": null,
          "codelist_values": [],
          "origin": "Assigned",
          "role": null,
          "core": "Perm",
          "description": null,
          "derivation": "_null_",
          "plain_english": null,
          "approval": {
            "status": "approved",
            "reviewed_by": "admin",
            "reviewed_at": "2025-12-12T05:31:30.113762",
            "comment": "CDISC auto-approved: Exact match in SDTM v3.4 - AE.AERELNST (100%)"
          }
        },
        {
          "domain": "AE",
          "name": "AEPATT",
          "label": "Pattern of Adverse Event",
          "data_type": "Char",
          "length": null,
          "format": null,
          "codelist": null,
          "codelist_values": [],
          "origin": "Assigned",
          "role": null,
          "core": "Perm",
          "description": null,
          "derivation": "_null_",
          "plain_english": null,
          "approval": {
            "status": "approved",
            "reviewed_by": "admin",
            "reviewed_at": "2025-12-12T05:31:30.162983",
            "comment": "CDISC auto-approved: Exact match in SDTM v3.4 - AE.AEPATT (100%)"
          }
        },
        {
          "domain": "AE",
          "name": "AEOUT",
          "label": "Outcome of Adverse Event",
          "data_type": "Char",
          "length": null,
          "format": null,
          "codelist": "(OUT)",
          "codelist_values": [],
          "origin": "CRF",
          "role": null,
          "core": "Perm",
          "description": null,
          "derivation": "Set to \"RECOVERED/RESOLVED\" if AE.AEOUT = \"Resolved\";\nelse set to \"RECOVERED/RESOLVED WITH SEQUELAE\" if AE.AEOUT = \"Recovered/Resolved With Sequelae\";\nelse set to \"RECOVERING/RESOLVING\" if AE.AEOUT = \"Recovering/Resolving\";\nelse set to \"NOT RECOVERED/NOT RESOLVED\" if AE.AEOUT = \"Not Recovered/Resolved\";\nelse set to \"FATAL\" if AE.AEOUT = \"Fatal\";\nelse set to \"UNKNOWN\" if AE.AEOUT = \"Unknown\".",
          "plain_english": null,
          "approval": {
            "status": "approved",
            "reviewed_by": "admin",
            "reviewed_at": "2025-12-12T05:31:30.211906",
            "comment": "CDISC auto-approved: Exact match in SDTM v3.4 - AE.AEOUT (100%)"
          }
        },
        {
          "domain": "AE",
          "name": "AESCAN",
          "label": "Involves Cancer",
          "data_type": "Char",
          "length": null,
          "format": null,
          "codelist": "(NY)",
          "codelist_values": [],
          "origin": "Assigned",
          "role": null,
          "core": "Perm",
          "description": null,
          "derivation": "_null_",
          "plain_english": null,
          "approval": {
            "status": "approved",
            "reviewed_by": "admin",
            "reviewed_at": "2025-12-12T05:31:30.261512",
            "comment": "CDISC auto-approved: Exact match in SDTM v3.4 - AE.AESCAN (100%)"
          }
        },
        {
          "domain": "AE",
          "name": "AESCONG",
          "label": "Congenital Anomaly or Birth Defect",
          "data_type": "Char",
          "length": null,
          "format": null,
          "codelist": "(NY)",
          "codelist_values": [],
          "origin": "CRF",
          "role": null,
          "core": "Perm",
          "description": null,
          "derivation": "Set to \"Y\" if AE.AESCONG=1",
          "plain_english": null,
          "approval": {
            "status": "approved",
            "reviewed_by": "admin",
            "reviewed_at": "2025-12-12T05:31:30.314882",
            "comment": "CDISC auto-approved: Exact match in SDTM v3.4 - AE.AESCONG (100%)"
          }
        },
        {
          "domain": "AE",
          "name": "AESDISAB",
          "label": "Persist or Signif Disability/Incapacity",
          "data_type": "Char",
          "length": null,
          "format": null,
          "codelist": "(NY)",
          "codelist_values": [],
          "origin": "CRF",
          "role": null,
          "core": "Perm",
          "description": null,
          "derivation": "Set to \"Y\" if AE.AESDISAB=1",
          "plain_english": null,
          "approval": {
            "status": "approved",
            "reviewed_by": "admin",
            "reviewed_at": "2025-12-12T05:31:30.364858",
            "comment": "CDISC auto-approved: Exact match in SDTM v3.4 - AE.AESDISAB (100%)"
          }
        },
        {
          "domain": "AE",
          "name": "AESDTH",
          "label": "Results in Death",
          "data_type": "Char",
          "length": null,
          "format": null,
          "codelist": "(NY)",
          "codelist_values": [],
          "origin": "CRF",
          "role": null,
          "core": "Perm",
          "description": null,
          "derivation": "Set to \"Y\" if AE.AESDTH=1",
          "plain_english": null,
          "approval": {
            "status": "approved",
            "reviewed_by": "admin",
            "reviewed_at": "2025-12-12T05:31:30.414440",
            "comment": "CDISC auto-approved: Exact match in SDTM v3.4 - AE.AESDTH (100%)"
          }
        },
        {
          "domain": "AE",
          "name": "AESHOSP",
          "label": "Requires or Prolongs Hospitalization",
          "data_type": "Char",
          "length": null,
          "format": null,
          "codelist": "(NY)",
          "codelist_values": [],
          "origin": "CRF",
          "role": null,
          "core": "Perm",
          "description": null,
          "derivation": "Set to \"Y\" if AE.AESHOSP=1",
          "plain_english": null,
          "approval": {
            "status": "approved",
            "reviewed_by": "admin",
            "reviewed_at": "2025-12-12T05:31:30.464410",
            "comment": "CDISC auto-approved: Exact match in SDTM v3.4 - AE.AESHOSP (100%)"
          }
        },
        {
          "domain": "AE",
          "name": "AESLIFE",
          "label": "Is Life Threatening",
          "data_type": "Char",
          "length": null,
          "format": null,
          "codelist": "(NY)",
          "codelist_values": [],
          "origin": "CRF",
          "role": null,
          "core": "Perm",
          "description": null,
          "derivation": "Set to \"Y\" if AE.AESLIFE=1",
          "plain_english": null,
          "approval": {
            "status": "approved",
            "reviewed_by": "admin",
            "reviewed_at": "2025-12-12T05:31:30.516360",
            "comment": "CDISC auto-approved: Exact match in SDTM v3.4 - AE.AESLIFE (100%)"
          }
        },
        {
          "domain": "AE",
          "name": "AESOD",
          "label": "Occurred with Overdose",
          "data_type": "Char",
          "length": null,
          "format": null,
          "codelist": "(NY)",
          "codelist_values": [],
          "origin": "Assigned",
          "role": null,
          "core": "Perm",
          "description": null,
          "derivation": "_null_",
          "plain_english": null,
          "approval": {
            "status": "approved",
            "reviewed_by": "admin",
            "reviewed_at": "2025-12-12T05:31:30.566162",
            "comment": "CDISC auto-approved: Exact match in SDTM v3.4 - AE.AESOD (100%)"
          }
        },
        {
          "domain": "AE",
          "name": "AESMIE",
          "label": "Other Medically Important Serious Event",
          "data_type": "Char",
          "length": null,
          "format": null,
          "codelist": "(NY)",
          "codelist_values": [],
          "origin": "CRF",
          "role": null,
          "core": "Perm",
          "description": null,
          "derivation": "Set to \"Y\" if AE.AESMIE=1",
          "plain_english": null,
          "approval": {
            "status": "approved",
            "reviewed_by": "admin",
            "reviewed_at": "2025-12-12T05:31:30.616225",
            "comment": "CDISC auto-approved: Exact match in SDTM v3.4 - AE.AESMIE (100%)"
          }
        },
        {
          "domain": "AE",
          "name": "AECONTRT",
          "label": "Concomitant or Additional Trtmnt Given",
          "data_type": "Char",
          "length": null,
          "format": null,
          "codelist": "(NY)",
          "codelist_values": [],
          "origin": "CRF",
          "role": null,
          "core": "Perm",
          "description": null,
          "derivation": "Set to \"Y\" if AE.AEACNO1=1 or AE.AEACNO4=1",
          "plain_english": null,
          "approval": {
            "status": "approved",
            "reviewed_by": "admin",
            "reviewed_at": "2025-12-12T05:31:30.665865",
            "comment": "CDISC auto-approved: Exact match in SDTM v3.4 - AE.AECONTRT (100%)"
          }
        },
        {
          "domain": "AE",
          "name": "AETOX",
          "label": "Toxicity",
          "data_type": "Char",
          "length": null,
          "format": null,
          "codelist": null,
          "codelist_values": [],
          "origin": "Assigned",
          "role": null,
          "core": "Model Permissible",
          "description": null,
          "derivation": "_null_",
          "plain_english": null,
          "approval": {
            "status": "approved",
            "reviewed_by": "admin",
            "reviewed_at": "2025-12-12T05:38:48.073911",
            "comment": "Bulk approved"
          }
        },
        {
          "domain": "AE",
          "name": "AETOXGR",
          "label": "Standard Toxicity Grade",
          "data_type": "Char",
          "length": null,
          "format": null,
          "codelist": "(AETOXGR)",
          "codelist_values": [],
          "origin": "CRF",
          "role": null,
          "core": "Perm",
          "description": null,
          "derivation": "Set to AE.AESEV_STD in character format.",
          "plain_english": null,
          "approval": {
            "status": "approved",
            "reviewed_by": "admin",
            "reviewed_at": "2025-12-12T05:31:30.742331",
            "comment": "CDISC auto-approved: Exact match in SDTM v3.4 - AE.AETOXGR (100%)"
          }
        },
        {
          "domain": "AE",
          "name": "VISITNUM",
          "label": "Visit Number",
          "data_type": "Num",
          "length": null,
          "format": null,
          "codelist": null,
          "codelist_values": [],
          "origin": "Derived",
          "role": null,
          "core": "Model Permissible",
          "description": null,
          "derivation": "Standard VISITNUM population logic",
          "plain_english": null,
          "approval": {
            "status": "approved",
            "reviewed_by": "admin",
            "reviewed_at": "2025-12-12T05:31:30.799400",
            "comment": "CDISC auto-approved: Name match in SDTM v3.4 (defined in AG) (85%)"
          }
        },
        {
          "domain": "AE",
          "name": "VISIT",
          "label": "Visit Name",
          "data_type": "Char",
          "length": null,
          "format": null,
          "codelist": null,
          "codelist_values": [],
          "origin": "Assigned",
          "role": null,
          "core": "Model Permissible",
          "description": null,
          "derivation": "Standard VISIT population logic",
          "plain_english": null,
          "approval": {
            "status": "approved",
            "reviewed_by": "admin",
            "reviewed_at": "2025-12-12T05:31:30.850745",
            "comment": "CDISC auto-approved: Name match in SDTM v3.4 (defined in AG) (85%)"
          }
        },
        {
          "domain": "AE",
          "name": "VISITDY",
          "label": "Planned Study Day of Visit",
          "data_type": "Num",
          "length": null,
          "format": null,
          "codelist": null,
          "codelist_values": [],
          "origin": "Assigned",
          "role": null,
          "core": "Model Permissible",
          "description": null,
          "derivation": "_null_",
          "plain_english": null,
          "approval": {
            "status": "approved",
            "reviewed_by": "admin",
            "reviewed_at": "2025-12-12T05:31:30.901453",
            "comment": "CDISC auto-approved: Name match in SDTM v3.4 (defined in AG) (85%)"
          }
        },
        {
          "domain": "AE",
          "name": "TAETORD",
          "label": "Planned Order of Element within Arm",
          "data_type": "Num",
          "length": null,
          "format": null,
          "codelist": null,
          "codelist_values": [],
          "origin": "Assigned",
          "role": null,
          "core": "Perm",
          "description": null,
          "derivation": "_null_",
          "plain_english": null,
          "approval": {
            "status": "approved",
            "reviewed_by": "admin",
            "reviewed_at": "2025-12-12T05:31:30.951839",
            "comment": "CDISC auto-approved: Exact match in SDTM v3.4 - AE.TAETORD (100%)"
          }
        },
        {
          "domain": "AE",
          "name": "EPOCH",
          "label": "Epoch",
          "data_type": "Char",
          "length": null,
          "format": null,
          "codelist": "(EPOCH)",
          "codelist_values": [],
          "origin": "Derived",
          "role": null,
          "core": "Perm",
          "description": null,
          "derivation": "Standard EPOCH population logic",
          "plain_english": null,
          "approval": {
            "status": "approved",
            "reviewed_by": "admin",
            "reviewed_at": "2025-12-12T05:31:31.001857",
            "comment": "CDISC auto-approved: Exact match in SDTM v3.4 - AE.EPOCH (100%)"
          }
        },
        {
          "domain": "AE",
          "name": "AEDTC",
          "label": "Date/Time of Collection",
          "data_type": "Char",
          "length": null,
          "format": null,
          "codelist": "ISO 8601",
          "codelist_values": [],
          "origin": "Assigned",
          "role": null,
          "core": "Model Permissible",
          "description": null,
          "derivation": "_null_",
          "plain_english": null,
          "approval": {
            "status": "approved",
            "reviewed_by": "admin",
            "reviewed_at": "2025-12-12T05:38:48.073911",
            "comment": "Bulk approved"
          }
        },
        {
          "domain": "AE",
          "name": "AESTDTC",
          "label": "Start Date/Time of Adverse Event",
          "data_type": "Char",
          "length": null,
          "format": null,
          "codelist": "ISO 8601",
          "codelist_values": [],
          "origin": "CRF",
          "role": null,
          "core": "Exp",
          "description": null,
          "derivation": "Set to AE.AESTDAT_RAW and AE.AESTTIM in ISO 8601 format.",
          "plain_english": null,
          "approval": {
            "status": "approved",
            "reviewed_by": "admin",
            "reviewed_at": "2025-12-12T05:31:31.081222",
            "comment": "CDISC auto-approved: Exact match in SDTM v3.4 - AE.AESTDTC (100%)"
          }
        },
        {
          "domain": "AE",
          "name": "AEENDTC",
          "label": "End Date/Time of Adverse Event",
          "data_type": "Char",
          "length": null,
          "format": null,
          "codelist": "ISO 8601",
          "codelist_values": [],
          "origin": "CRF",
          "role": null,
          "core": "Exp",
          "description": null,
          "derivation": "Set to AE.AEENDAT_RAW and AE.AEENTIM in ISO 8601 format.",
          "plain_english": null,
          "approval": {
            "status": "approved",
            "reviewed_by": "admin",
            "reviewed_at": "2025-12-12T05:31:31.132185",
            "comment": "CDISC auto-approved: Exact match in SDTM v3.4 - AE.AEENDTC (100%)"
          }
        },
        {
          "domain": "AE",
          "name": "AEDY",
          "label": "Study Day of Visit/Collection/Exam",
          "data_type": "Num",
          "length": null,
          "format": null,
          "codelist": null,
          "codelist_values": [],
          "origin": "Derived",
          "role": null,
          "core": "Model Permissible",
          "description": null,
          "derivation": "Standard --DY population logic",
          "plain_english": null,
          "approval": {
            "status": "approved",
            "reviewed_by": "admin",
            "reviewed_at": "2025-12-12T05:38:48.073911",
            "comment": "Bulk approved"
          }
        },
        {
          "domain": "AE",
          "name": "AESTDY",
          "label": "Study Day of Start of Adverse Event",
          "data_type": "Num",
          "length": null,
          "format": null,
          "codelist": null,
          "codelist_values": [],
          "origin": "Derived",
          "role": null,
          "core": "Perm",
          "description": null,
          "derivation": "Standard --STDY population logic",
          "plain_english": null,
          "approval": {
            "status": "approved",
            "reviewed_by": "admin",
            "reviewed_at": "2025-12-12T05:31:31.206500",
            "comment": "CDISC auto-approved: Exact match in SDTM v3.4 - AE.AESTDY (100%)"
          }
        },
        {
          "domain": "AE",
          "name": "AEENDY",
          "label": "Study Day of End of Adverse Event",
          "data_type": "Num",
          "length": null,
          "format": null,
          "codelist": null,
          "codelist_values": [],
          "origin": "Derived",
          "role": null,
          "core": "Perm",
          "description": null,
          "derivation": "Standard --ENDY population logic",
          "plain_english": null,
          "approval": {
            "status": "approved",
            "reviewed_by": "admin",
            "reviewed_at": "2025-12-12T05:31:31.256077",
            "comment": "CDISC auto-approved: Exact match in SDTM v3.4 - AE.AEENDY (100%)"
          }
        },
        {
          "domain": "AE",
          "name": "AEDUR",
          "label": "Duration of Adverse Event",
          "data_type": "Char",
          "length": null,
          "format": null,
          "codelist": "ISO 8601",
          "codelist_values": [],
          "origin": "Assigned",
          "role": null,
          "core": "Perm",
          "description": null,
          "derivation": "_null_",
          "plain_english": null,
          "approval": {
            "status": "approved",
            "reviewed_by": "admin",
            "reviewed_at": "2025-12-12T05:31:31.305103",
            "comment": "CDISC auto-approved: Exact match in SDTM v3.4 - AE.AEDUR (100%)"
          }
        },
        {
          "domain": "AE",
          "name": "AETPT",
          "label": "Planned Time Point Name",
          "data_type": "Char",
          "length": null,
          "format": null,
          "codelist": null,
          "codelist_values": [],
          "origin": "Assigned",
          "role": null,
          "core": "Model Permissible",
          "description": null,
          "derivation": "_null_",
          "plain_english": null,
          "approval": {
            "status": "approved",
            "reviewed_by": "admin",
            "reviewed_at": "2025-12-12T05:38:48.073911",
            "comment": "Bulk approved"
          }
        },
        {
          "domain": "AE",
          "name": "AETPTNUM",
          "label": "Planned Time Point Number",
          "data_type": "Num",
          "length": null,
          "format": null,
          "codelist": null,
          "codelist_values": [],
          "origin": "Derived",
          "role": null,
          "core": "Model Permissible",
          "description": null,
          "derivation": "_null_",
          "plain_english": null,
          "approval": {
            "status": "approved",
            "reviewed_by": "admin",
            "reviewed_at": "2025-12-12T05:38:48.073911",
            "comment": "Bulk approved"
          }
        },
        {
          "domain": "AE",
          "name": "AEELTM",
          "label": "Planned Elapsed Time from Time Point Ref",
          "data_type": "Char",
          "length": null,
          "format": null,
          "codelist": "ISO 8601",
          "codelist_values": [],
          "origin": "Assigned",
          "role": null,
          "core": "Model Permissible",
          "description": null,
          "derivation": "_null_",
          "plain_english": null,
          "approval": {
            "status": "approved",
            "reviewed_by": "admin",
            "reviewed_at": "2025-12-12T05:38:48.073911",
            "comment": "Bulk approved"
          }
        },
        {
          "domain": "AE",
          "name": "AETPTREF",
          "label": "Time Point Reference",
          "data_type": "Char",
          "length": null,
          "format": null,
          "codelist": null,
          "codelist_values": [],
          "origin": "Assigned",
          "role": null,
          "core": "Model Permissible",
          "description": null,
          "derivation": "_null_",
          "plain_english": null,
          "approval": {
            "status": "approved",
            "reviewed_by": "admin",
            "reviewed_at": "2025-12-12T05:38:48.073911",
            "comment": "Bulk approved"
          }
        },
        {
          "domain": "AE",
          "name": "AERFTDTC",
          "label": "Date/Time of Reference Time Point",
          "data_type": "Char",
          "length": null,
          "format": null,
          "codelist": "ISO 8601",
          "codelist_values": [],
          "origin": "Assigned",
          "role": null,
          "core": "Model Permissible",
          "description": null,
          "derivation": "_null_",
          "plain_english": null,
          "approval": {
            "status": "approved",
            "reviewed_by": "admin",
            "reviewed_at": "2025-12-12T05:38:48.073911",
            "comment": "Bulk approved"
          }
        },
        {
          "domain": "AE",
          "name": "AESTRF",
          "label": "Start Relative to Reference Period",
          "data_type": "Char",
          "length": null,
          "format": null,
          "codelist": "(STENRF)",
          "codelist_values": [],
          "origin": "Assigned",
          "role": null,
          "core": "Model Permissible",
          "description": null,
          "derivation": "_null_",
          "plain_english": null,
          "approval": {
            "status": "approved",
            "reviewed_by": "admin",
            "reviewed_at": "2025-12-12T05:38:48.073911",
            "comment": "Bulk approved"
          }
        },
        {
          "domain": "AE",
          "name": "AEENRF",
          "label": "End Relative to Reference Period",
          "data_type": "Char",
          "length": null,
          "format": null,
          "codelist": "(STENRF)",
          "codelist_values": [],
          "origin": "Assigned",
          "role": null,
          "core": "Perm",
          "description": null,
          "derivation": "_null_",
          "plain_english": null,
          "approval": {
            "status": "approved",
            "reviewed_by": "admin",
            "reviewed_at": "2025-12-12T05:31:31.508645",
            "comment": "CDISC auto-approved: Exact match in SDTM v3.4 - AE.AEENRF (100%)"
          }
        },
        {
          "domain": "AE",
          "name": "AEEVLINT",
          "label": "Evaluation Interval",
          "data_type": "Char",
          "length": null,
          "format": null,
          "codelist": "ISO 8601",
          "codelist_values": [],
          "origin": "Assigned",
          "role": null,
          "core": "Model Permissible",
          "description": null,
          "derivation": "_null_",
          "plain_english": null,
          "approval": {
            "status": "approved",
            "reviewed_by": "admin",
            "reviewed_at": "2025-12-12T05:38:48.073911",
            "comment": "Bulk approved"
          }
        },
        {
          "domain": "AE",
          "name": "AEEVINTX",
          "label": "Evaluation Interval Text",
          "data_type": "Char",
          "length": null,
          "format": null,
          "codelist": null,
          "codelist_values": [],
          "origin": "Assigned",
          "role": null,
          "core": "Model Permissible",
          "description": null,
          "derivation": "_null_",
          "plain_english": null,
          "approval": {
            "status": "approved",
            "reviewed_by": "admin",
            "reviewed_at": "2025-12-12T05:38:48.073911",
            "comment": "Bulk approved"
          }
        },
        {
          "domain": "AE",
          "name": "AESTRTPT",
          "label": "Start Relative to Reference Time Point",
          "data_type": "Char",
          "length": null,
          "format": null,
          "codelist": "(STENRF)",
          "codelist_values": [],
          "origin": "Assigned",
          "role": null,
          "core": "Model Permissible",
          "description": null,
          "derivation": "_null_",
          "plain_english": null,
          "approval": {
            "status": "approved",
            "reviewed_by": "admin",
            "reviewed_at": "2025-12-12T05:38:48.073911",
            "comment": "Bulk approved"
          }
        },
        {
          "domain": "AE",
          "name": "AESTTPT",
          "label": "Start Reference Time Point",
          "data_type": "Char",
          "length": null,
          "format": null,
          "codelist": null,
          "codelist_values": [],
          "origin": "Assigned",
          "role": null,
          "core": "Model Permissible",
          "description": null,
          "derivation": "_null_",
          "plain_english": null,
          "approval": {
            "status": "approved",
            "reviewed_by": "admin",
            "reviewed_at": "2025-12-12T05:38:48.073911",
            "comment": "Bulk approved"
          }
        },
        {
          "domain": "AE",
          "name": "AEENRTPT",
          "label": "End Relative to Reference Time Point",
          "data_type": "Char",
          "length": null,
          "format": null,
          "codelist": "(STENRF)",
          "codelist_values": [],
          "origin": "Assigned",
          "role": null,
          "core": "Perm",
          "description": null,
          "derivation": "_null_",
          "plain_english": null,
          "approval": {
            "status": "approved",
            "reviewed_by": "admin",
            "reviewed_at": "2025-12-12T05:31:31.658648",
            "comment": "CDISC auto-approved: Exact match in SDTM v3.4 - AE.AEENRTPT (100%)"
          }
        },
        {
          "domain": "AE",
          "name": "AEENTPT",
          "label": "End Reference Time Point",
          "data_type": "Char",
          "length": null,
          "format": null,
          "codelist": null,
          "codelist_values": [],
          "origin": "Assigned",
          "role": null,
          "core": "Perm",
          "description": null,
          "derivation": "_null_",
          "plain_english": null,
          "approval": {
            "status": "approved",
            "reviewed_by": "admin",
            "reviewed_at": "2025-12-12T05:31:31.708767",
            "comment": "CDISC auto-approved: Exact match in SDTM v3.4 - AE.AEENTPT (100%)"
          }
        },
        {
          "domain": "AE",
          "name": "MIDS",
          "label": "Disease Milestone Instance Name",
          "data_type": "Char",
          "length": null,
          "format": null,
          "codelist": null,
          "codelist_values": [],
          "origin": "Assigned",
          "role": null,
          "core": "Model Permissible",
          "description": null,
          "derivation": "_null_",
          "plain_english": null,
          "approval": {
            "status": "approved",
            "reviewed_by": "admin",
            "reviewed_at": "2025-12-12T05:31:31.760067",
            "comment": "CDISC auto-approved: Name match in SDTM v3.4 (defined in ML) (85%)"
          }
        },
        {
          "domain": "AE",
          "name": "RELMIDS",
          "label": "Temporal Relation to Milestone Instance",
          "data_type": "Char",
          "length": null,
          "format": null,
          "codelist": null,
          "codelist_values": [],
          "origin": "Assigned",
          "role": null,
          "core": "Model Permissible",
          "description": null,
          "derivation": "_null_",
          "plain_english": null,
          "approval": {
            "status": "approved",
            "reviewed_by": "admin",
            "reviewed_at": "2025-12-12T05:31:31.813849",
            "comment": "CDISC auto-approved: Name match in SDTM v3.4 (defined in ML) (85%)"
          }
        },
        {
          "domain": "AE",
          "name": "MIDSDTC",
          "label": "Disease Milestone Instance Date/Time",
          "data_type": "Char",
          "length": null,
          "format": null,
          "codelist": null,
          "codelist_values": [],
          "origin": "Assigned",
          "role": null,
          "core": "Model Permissible",
          "description": null,
          "derivation": "_null_",
          "plain_english": null,
          "approval": {
            "status": "approved",
            "reviewed_by": "admin",
            "reviewed_at": "2025-12-12T05:31:31.866755",
            "comment": "CDISC auto-approved: Name match in SDTM v3.4 (defined in ML) (85%)"
          }
        },
        {
          "domain": "AE",
          "name": "AESTINT",
          "label": "Planned Start of Assessment Interval",
          "data_type": "Char",
          "length": null,
          "format": null,
          "codelist": "ISO 8601",
          "codelist_values": [],
          "origin": "Assigned",
          "role": null,
          "core": "Model Permissible",
          "description": null,
          "derivation": "_null_",
          "plain_english": null,
          "approval": {
            "status": "approved",
            "reviewed_by": "admin",
            "reviewed_at": "2025-12-12T05:38:48.073911",
            "comment": "Bulk approved"
          }
        },
        {
          "domain": "AE",
          "name": "AEENINT",
          "label": "Planned End of Assessment Interval",
          "data_type": "Char",
          "length": null,
          "format": null,
          "codelist": "ISO 8601",
          "codelist_values": [],
          "origin": "Assigned",
          "role": null,
          "core": "Model Permissible",
          "description": null,
          "derivation": "_null_",
          "plain_english": null,
          "approval": {
            "status": "approved",
            "reviewed_by": "admin",
            "reviewed_at": "2025-12-12T05:38:48.073911",
            "comment": "Bulk approved"
          }
        }
      ],
      "approval": {
        "status": "pending",
        "reviewed_by": null,
        "reviewed_at": null,
        "comment": null
      }
    },
    {
      "name": "BS",
      "label": "BS Domain",
      "structure": "",
      "purpose": "",
      "keys": [],
      "variables": [
        {
          "domain": "BS",
          "name": "STUDYID",
          "label": "Study Identifier",
          "data_type": "Char",
          "length": null,
          "format": null,
          "codelist": null,
          "codelist_values": [],
          "origin": "Protocol",
          "role": null,
          "core": "Req",
          "description": null,
          "derivation": "Standard STUDYID population logic",
          "plain_english": null,
          "approval": {
            "status": "approved",
            "reviewed_by": "admin",
            "reviewed_at": "2025-12-12T05:31:31.969363",
            "comment": "CDISC auto-approved: Exact match in SDTM v3.4 - BS.STUDYID (100%)"
          }
        },
        {
          "domain": "BS",
          "name": "DOMAIN",
          "label": "Domain Abbreviation",
          "data_type": "Char",
          "length": null,
          "format": null,
          "codelist": "DOMAIN.BS",
          "codelist_values": [],
          "origin": "Assigned",
          "role": null,
          "core": "Req",
          "description": null,
          "derivation": "\"PC\"",
          "plain_english": null,
          "approval": {
            "status": "approved",
            "reviewed_by": "admin",
            "reviewed_at": "2025-12-12T05:31:32.019783",
            "comment": "CDISC auto-approved: Exact match in SDTM v3.4 - BS.DOMAIN (100%)"
          }
        },
        {
          "domain": "BS",
          "name": "USUBJID",
          "label": "Unique Subject Identifier",
          "data_type": "Char",
          "length": null,
          "format": null,
          "codelist": null,
          "codelist_values": [],
          "origin": "Derived",
          "role": null,
          "core": "Exp",
          "description": null,
          "derivation": "Standard USUBJID population logic",
          "plain_english": null,
          "approval": {
            "status": "approved",
            "reviewed_by": "admin",
            "reviewed_at": "2025-12-12T05:31:32.069631",
            "comment": "CDISC auto-approved: Exact match in SDTM v3.4 - BS.USUBJID (100%)"
          }
        },
        {
          "domain": "BS",
          "name": "POOLID",
          "label": "Pool Identifier",
          "data_type": "Char",
          "length": null,
          "format": null,
          "codelist": null,
          "codelist_values": [],
          "origin": "Assigned",
          "role": null,
          "core": "Model Permissible",
          "description": null,
          "derivation": "_null_",
          "plain_english": null,
          "approval": {
            "status": "approved",
            "reviewed_by": "admin",
            "reviewed_at": "2025-12-12T05:31:32.161763",
            "comment": "CDISC auto-approved: Name match in SDTM v3.4 (defined in RELSUB) (85%)"
          }
        },
        {
          "domain": "BS",
          "name": "SPDEVID",
          "label": "Sponsor Device Identifier",
          "data_type": "Char",
          "length": null,
          "format": null,
          "codelist": null,
          "codelist_values": [],
          "origin": "Assigned",
          "role": null,
          "core": "Model Permissible",
          "description": null,
          "derivation": "_null_",
          "plain_english": null,
          "approval": {
            "status": "approved",
            "reviewed_by": "admin",
            "reviewed_at": "2025-12-12T05:31:32.211506",
            "comment": "CDISC auto-approved: Exact match in SDTM v3.4 - BS.SPDEVID (100%)"
          }
        },
        {
          "domain": "BS",
          "name": "NHOID",
          "label": "Non-Host Organism Identifier",
          "data_type": "Char",
          "length": null,
          "format": null,
          "codelist": null,
          "codelist_values": [],
          "origin": null,
          "role": null,
          "core": "Model Permissible",
          "description": null,
          "derivation": "_null_",
          "plain_english": null,
          "approval": {
            "status": "approved",
            "reviewed_by": "admin",
            "reviewed_at": "2025-12-12T05:31:32.263289",
            "comment": "CDISC auto-approved: Name match in SDTM v3.4 (defined in GF) (85%)"
          }
        },
        {
          "domain": "BS",
          "name": "FOCID",
          "label": "Focus of Study-Specific Interest",
          "data_type": "Char",
          "length": null,
          "format": null,
          "codelist": null,
          "codelist_values": [],
          "origin": null,
          "role": null,
          "core": "Model Permissible",
          "description": null,
          "derivation": "_null_",
          "plain_english": null,
          "approval": {
            "status": "approved",
            "reviewed_by": "admin",
            "reviewed_at": "2025-12-12T05:31:32.314304",
            "comment": "CDISC auto-approved: Name match in SDTM v3.4 (defined in MB) (85%)"
          }
        },
        {
          "domain": "BS",
          "name": "BSSEQ",
          "label": "Sequence Number",
          "data_type": "Num",
          "length": null,
          "format": null,
          "codelist": null,
          "codelist_values": [],
          "origin": "Derived",
          "role": null,
          "core": "Req",
          "description": null,
          "derivation": "Standard --SEQ population logic",
          "plain_english": null,
          "approval": {
            "status": "approved",
            "reviewed_by": "admin",
            "reviewed_at": "2025-12-12T05:31:32.363435",
            "comment": "CDISC auto-approved: Exact match in SDTM v3.4 - BS.BSSEQ (100%)"
          }
        },
        {
          "domain": "BS",
          "name": "BSGRPID",
          "label": "Group ID",
          "data_type": "Char",
          "length": null,
          "format": null,
          "codelist": null,
          "codelist_values": [],
          "origin": "Assigned",
          "role": null,
          "core": "Perm",
          "description": null,
          "derivation": "_null_",
          "plain_english": null,
          "approval": {
            "status": "approved",
            "reviewed_by": "admin",
            "reviewed_at": "2025-12-12T05:31:32.412304",
            "comment": "CDISC auto-approved: Exact match in SDTM v3.4 - BS.BSGRPID (100%)"
          }
        },
        {
          "domain": "BS",
          "name": "BSREFID",
          "label": "Reference ID",
          "data_type": "Char",
          "length": null,
          "format": null,
          "codelist": null,
          "codelist_values": [],
          "origin": "Assigned",
          "role": null,
          "core": "Perm",
          "description": null,
          "derivation": "_null_",
          "plain_english": null,
          "approval": {
            "status": "approved",
            "reviewed_by": "admin",
            "reviewed_at": "2025-12-12T05:31:32.461411",
            "comment": "CDISC auto-approved: Exact match in SDTM v3.4 - BS.BSREFID (100%)"
          }
        },
        {
          "domain": "BS",
          "name": "BSRECID",
          "label": "Invariant Record Identifier",
          "data_type": "Char",
          "length": null,
          "format": null,
          "codelist": null,
          "codelist_values": [],
          "origin": null,
          "role": null,
          "core": "Model Permissible",
          "description": null,
          "derivation": "_null_",
          "plain_english": null,
          "approval": {
            "status": "approved",
            "reviewed_by": "admin",
            "reviewed_at": "2025-12-12T05:38:53.268896",
            "comment": "Bulk approved"
          }
        },
        {
          "domain": "BS",
          "name": "BSSPID",
          "label": "Sponsor-Defined Identifier",
          "data_type": "Char",
          "length": null,
          "format": null,
          "codelist": null,
          "codelist_values": [],
          "origin": "Assigned",
          "role": null,
          "core": "Perm",
          "description": null,
          "derivation": "_null_",
          "plain_english": null,
          "approval": {
            "status": "approved",
            "reviewed_by": "admin",
            "reviewed_at": "2025-12-12T05:31:32.536609",
            "comment": "CDISC auto-approved: Exact match in SDTM v3.4 - BS.BSSPID (100%)"
          }
        },
        {
          "domain": "BS",
          "name": "BSLNKID",
          "label": "Link ID",
          "data_type": "Char",
          "length": null,
          "format": null,
          "codelist": null,
          "codelist_values": [],
          "origin": "Assigned",
          "role": null,
          "core": "Model Permissible",
          "description": null,
          "derivation": "_null_",
          "plain_english": null,
          "approval": {
            "status": "approved",
            "reviewed_by": "admin",
            "reviewed_at": "2025-12-12T05:38:53.268896",
            "comment": "Bulk approved"
          }
        },
        {
          "domain": "BS",
          "name": "BSLNKGRP",
          "label": "Link Group ID",
          "data_type": "Char",
          "length": null,
          "format": null,
          "codelist": null,
          "codelist_values": [],
          "origin": "Assigned",
          "role": null,
          "core": "Model Permissible",
          "description": null,
          "derivation": "_null_",
          "plain_english": null,
          "approval": {
            "status": "approved",
            "reviewed_by": "admin",
            "reviewed_at": "2025-12-12T05:38:53.268896",
            "comment": "Bulk approved"
          }
        },
        {
          "domain": "BS",
          "name": "BSTESTCD",
          "label": "Biospecimen Test Short Name",
          "data_type": "Char",
          "length": null,
          "format": null,
          "codelist": "(BSTESTCD)",
          "codelist_values": [],
          "origin": "CRF",
          "role": null,
          "core": "Req",
          "description": null,
          "derivation": "[TUSC1]: \nSet to \"BSALL\" if TUSCYN=\"No\".\n[PB]:\nSet to \"BSALL\" if PBPERF=\"No\".",
          "plain_english": null,
          "approval": {
            "status": "approved",
            "reviewed_by": "admin",
            "reviewed_at": "2025-12-12T05:31:32.648610",
            "comment": "CDISC auto-approved: Exact match in SDTM v3.4 - BS.BSTESTCD (100%)"
          }
        },
        {
          "domain": "BS",
          "name": "BSTEST",
          "label": "Biospecimen Test Name",
          "data_type": "Char",
          "length": null,
          "format": null,
          "codelist": "(BSTEST)",
          "codelist_values": [],
          "origin": "Assigned",
          "role": null,
          "core": "Req",
          "description": null,
          "derivation": "\"Biospecimen Findings\"",
          "plain_english": null,
          "approval": {
            "status": "approved",
            "reviewed_by": "admin",
            "reviewed_at": "2025-12-12T05:31:32.701602",
            "comment": "CDISC auto-approved: Exact match in SDTM v3.4 - BS.BSTEST (100%)"
          }
        },
        {
          "domain": "BS",
          "name": "BSMODIFY",
          "label": "Modified Term",
          "data_type": "Char",
          "length": null,
          "format": null,
          "codelist": null,
          "codelist_values": [],
          "origin": "Assigned",
          "role": null,
          "core": "Model Permissible",
          "description": null,
          "derivation": "_null_",
          "plain_english": null,
          "approval": {
            "status": "approved",
            "reviewed_by": "admin",
            "reviewed_at": "2025-12-12T05:38:53.268896",
            "comment": "Bulk approved"
          }
        },
        {
          "domain": "BS",
          "name": "BSTSTDTL",
          "label": "Measurement, Test or Examination Detail",
          "data_type": "Char",
          "length": null,
          "format": null,
          "codelist": null,
          "codelist_values": [],
          "origin": "Assigned",
          "role": null,
          "core": "Model Permissible",
          "description": null,
          "derivation": "_null_",
          "plain_english": null,
          "approval": {
            "status": "approved",
            "reviewed_by": "admin",
            "reviewed_at": "2025-12-12T05:38:53.268896",
            "comment": "Bulk approved"
          }
        },
        {
          "domain": "BS",
          "name": "BSCAT",
          "label": "Category for Biospecimen Test",
          "data_type": "Char",
          "length": null,
          "format": null,
          "codelist": "(BSCAT)",
          "codelist_values": [],
          "origin": "CRF",
          "role": null,
          "core": "Perm",
          "description": null,
          "derivation": "[TUSC1]: \n\"SAMPLE OF BIOMARKER AND TUMOR TISSUE\"\n[PB]:\n\"PERIPHERAL BLOOD\"",
          "plain_english": null,
          "approval": {
            "status": "approved",
            "reviewed_by": "admin",
            "reviewed_at": "2025-12-12T05:31:32.812957",
            "comment": "CDISC auto-approved: Exact match in SDTM v3.4 - BS.BSCAT (100%)"
          }
        },
        {
          "domain": "BS",
          "name": "BSSCAT",
          "label": "Test Subcategory",
          "data_type": "Char",
          "length": null,
          "format": null,
          "codelist": "(BSSCAT)",
          "codelist_values": [],
          "origin": "CRF",
          "role": null,
          "core": "Perm",
          "description": null,
          "derivation": "[PC]: set to \"PK SAMPLE - SINGLE\";\n[PC1]: set to \"PK SAMPLE\".",
          "plain_english": null,
          "approval": {
            "status": "approved",
            "reviewed_by": "admin",
            "reviewed_at": "2025-12-12T05:31:32.862415",
            "comment": "CDISC auto-approved: Exact match in SDTM v3.4 - BS.BSSCAT (97%)"
          }
        },
        {
          "domain": "BS",
          "name": "BSPOS",
          "label": "Position of Subject During Observation",
          "data_type": "Char",
          "length": null,
          "format": null,
          "codelist": "(POSITION)",
          "codelist_values": [],
          "origin": "Assigned",
          "role": null,
          "core": "Model Permissible",
          "description": null,
          "derivation": "_null_",
          "plain_english": null,
          "approval": {
            "status": "approved",
            "reviewed_by": "admin",
            "reviewed_at": "2025-12-12T05:38:53.268896",
            "comment": "Bulk approved"
          }
        },
        {
          "domain": "BS",
          "name": "BSBODSYS",
          "label": "Body System or Organ Class",
          "data_type": "Char",
          "length": null,
          "format": null,
          "codelist": null,
          "codelist_values": [],
          "origin": null,
          "role": null,
          "core": "Not Recommended",
          "description": null,
          "derivation": "_null_",
          "plain_english": null,
          "approval": {
            "status": "approved",
            "reviewed_by": "admin",
            "reviewed_at": "2025-12-12T05:38:53.268896",
            "comment": "Bulk approved"
          }
        },
        {
          "domain": "BS",
          "name": "BSORRES",
          "label": "Result or Finding in Original Units",
          "data_type": "Char",
          "length": null,
          "format": null,
          "codelist": null,
          "codelist_values": [],
          "origin": "eDT",
          "role": null,
          "core": "Exp",
          "description": null,
          "derivation": "Pending for eDT data.",
          "plain_english": null,
          "approval": {
            "status": "approved",
            "reviewed_by": "admin",
            "reviewed_at": "2025-12-12T05:31:32.962665",
            "comment": "CDISC auto-approved: Exact match in SDTM v3.4 - BS.BSORRES (100%)"
          }
        },
        {
          "domain": "BS",
          "name": "BSORRESU",
          "label": "Original Units",
          "data_type": "Char",
          "length": null,
          "format": null,
          "codelist": null,
          "codelist_values": [],
          "origin": "eDT",
          "role": null,
          "core": "Exp",
          "description": null,
          "derivation": "Pending for eDT data.",
          "plain_english": null,
          "approval": {
            "status": "approved",
            "reviewed_by": "admin",
            "reviewed_at": "2025-12-12T05:31:33.012669",
            "comment": "CDISC auto-approved: Exact match in SDTM v3.4 - BS.BSORRESU (100%)"
          }
        },
        {
          "domain": "BS",
          "name": "BSORNRLO",
          "label": "Normal Range Lower Limit-Original Units",
          "data_type": "Char",
          "length": null,
          "format": null,
          "codelist": null,
          "codelist_values": [],
          "origin": "Assigned",
          "role": null,
          "core": "Model Permissible",
          "description": null,
          "derivation": "_null_",
          "plain_english": null,
          "approval": {
            "status": "approved",
            "reviewed_by": "admin",
            "reviewed_at": "2025-12-12T05:38:53.268896",
            "comment": "Bulk approved"
          }
        },
        {
          "domain": "BS",
          "name": "BSORNRHI",
          "label": "Normal Range Upper Limit-Original Units",
          "data_type": "Char",
          "length": null,
          "format": null,
          "codelist": null,
          "codelist_values": [],
          "origin": "Assigned",
          "role": null,
          "core": "Model Permissible",
          "description": null,
          "derivation": "_null_",
          "plain_english": null,
          "approval": {
            "status": "approved",
            "reviewed_by": "admin",
            "reviewed_at": "2025-12-12T05:38:53.268896",
            "comment": "Bulk approved"
          }
        },
        {
          "domain": "BS",
          "name": "BSORREF",
          "label": "Reference Result in Original Units",
          "data_type": "Char",
          "length": null,
          "format": null,
          "codelist": null,
          "codelist_values": [],
          "origin": null,
          "role": null,
          "core": "Model Permissible",
          "description": null,
          "derivation": "_null_",
          "plain_english": null,
          "approval": {
            "status": "approved",
            "reviewed_by": "admin",
            "reviewed_at": "2025-12-12T05:38:53.268896",
            "comment": "Bulk approved"
          }
        },
        {
          "domain": "BS",
          "name": "BSSTRESC",
          "label": "Character Result/Finding in Std Format",
          "data_type": "Char",
          "length": null,
          "format": null,
          "codelist": null,
          "codelist_values": [],
          "origin": "Derived",
          "role": null,
          "core": "Exp",
          "description": null,
          "derivation": "Set to BSORRES.",
          "plain_english": null,
          "approval": {
            "status": "approved",
            "reviewed_by": "admin",
            "reviewed_at": "2025-12-12T05:31:33.137906",
            "comment": "CDISC auto-approved: Exact match in SDTM v3.4 - BS.BSSTRESC (100%)"
          }
        },
        {
          "domain": "BS",
          "name": "BSSTRESN",
          "label": "Numeric Result/Finding in Standard Units",
          "data_type": "Num",
          "length": null,
          "format": null,
          "codelist": null,
          "codelist_values": [],
          "origin": "Derived",
          "role": null,
          "core": "Exp",
          "description": null,
          "derivation": "Set to BSORRES in numeric format.",
          "plain_english": null,
          "approval": {
            "status": "approved",
            "reviewed_by": "admin",
            "reviewed_at": "2025-12-12T05:31:33.188232",
            "comment": "CDISC auto-approved: Exact match in SDTM v3.4 - BS.BSSTRESN (100%)"
          }
        },
        {
          "domain": "BS",
          "name": "BSSTRESU",
          "label": "Standard Units",
          "data_type": "Char",
          "length": null,
          "format": null,
          "codelist": null,
          "codelist_values": [],
          "origin": "Derived",
          "role": null,
          "core": "Exp",
          "description": null,
          "derivation": "Set to BSORRESU.",
          "plain_english": null,
          "approval": {
            "status": "approved",
            "reviewed_by": "admin",
            "reviewed_at": "2025-12-12T05:31:33.236870",
            "comment": "CDISC auto-approved: Exact match in SDTM v3.4 - BS.BSSTRESU (100%)"
          }
        },
        {
          "domain": "BS",
          "name": "BSSTNRLO",
          "label": "Normal Range Lower Limit-Standard Units",
          "data_type": "Num",
          "length": null,
          "format": null,
          "codelist": null,
          "codelist_values": [],
          "origin": "Assigned",
          "role": null,
          "core": "Model Permissible",
          "description": null,
          "derivation": "_null_",
          "plain_english": null,
          "approval": {
            "status": "approved",
            "reviewed_by": "admin",
            "reviewed_at": "2025-12-12T05:38:53.268896",
            "comment": "Bulk approved"
          }
        },
        {
          "domain": "BS",
          "name": "BSSTNRHI",
          "label": "Normal Range Upper Limit-Standard Units",
          "data_type": "Num",
          "length": null,
          "format": null,
          "codelist": null,
          "codelist_values": [],
          "origin": "Assigned",
          "role": null,
          "core": "Model Permissible",
          "description": null,
          "derivation": "_null_",
          "plain_english": null,
          "approval": {
            "status": "approved",
            "reviewed_by": "admin",
            "reviewed_at": "2025-12-12T05:38:53.268896",
            "comment": "Bulk approved"
          }
        },
        {
          "domain": "BS",
          "name": "BSSTNRC",
          "label": "Normal Range for Character Results",
          "data_type": "Char",
          "length": null,
          "format": null,
          "codelist": null,
          "codelist_values": [],
          "origin": "Assigned",
          "role": null,
          "core": "Model Permissible",
          "description": null,
          "derivation": "_null_",
          "plain_english": null,
          "approval": {
            "status": "approved",
            "reviewed_by": "admin",
            "reviewed_at": "2025-12-12T05:38:53.268896",
            "comment": "Bulk approved"
          }
        },
        {
          "domain": "BS",
          "name": "BSSTREFC",
          "label": "Reference Result in Standard Format",
          "data_type": "Char",
          "length": null,
          "format": null,
          "codelist": null,
          "codelist_values": [],
          "origin": null,
          "role": null,
          "core": "Model Permissible",
          "description": null,
          "derivation": "_null_",
          "plain_english": null,
          "approval": {
            "status": "approved",
            "reviewed_by": "admin",
            "reviewed_at": "2025-12-12T05:38:53.268896",
            "comment": "Bulk approved"
          }
        },
        {
          "domain": "BS",
          "name": "BSSTREFN",
          "label": "Numeric Reference Result in Std Units",
          "data_type": "Num",
          "length": null,
          "format": null,
          "codelist": null,
          "codelist_values": [],
          "origin": null,
          "role": null,
          "core": "Model Permissible",
          "description": null,
          "derivation": "_null_",
          "plain_english": null,
          "approval": {
            "status": "approved",
            "reviewed_by": "admin",
            "reviewed_at": "2025-12-12T05:38:53.268896",
            "comment": "Bulk approved"
          }
        },
        {
          "domain": "BS",
          "name": "BSNRIND",
          "label": "Normal/Reference Range Indicator",
          "data_type": "Char",
          "length": null,
          "format": null,
          "codelist": null,
          "codelist_values": [],
          "origin": "Assigned",
          "role": null,
          "core": "Model Permissible",
          "description": null,
          "derivation": "_null_",
          "plain_english": null,
          "approval": {
            "status": "approved",
            "reviewed_by": "admin",
            "reviewed_at": "2025-12-12T05:38:53.268896",
            "comment": "Bulk approved"
          }
        },
        {
          "domain": "BS",
          "name": "BSRESCAT",
          "label": "Result Category",
          "data_type": "Char",
          "length": null,
          "format": null,
          "codelist": null,
          "codelist_values": [],
          "origin": "Assigned",
          "role": null,
          "core": "Model Permissible",
          "description": null,
          "derivation": "_null_",
          "plain_english": null,
          "approval": {
            "status": "approved",
            "reviewed_by": "admin",
            "reviewed_at": "2025-12-12T05:38:53.268896",
            "comment": "Bulk approved"
          }
        },
        {
          "domain": "BS",
          "name": "BSCHRON",
          "label": "Chronicity of Finding",
          "data_type": "Char",
          "length": null,
          "format": null,
          "codelist": null,
          "codelist_values": [],
          "origin": null,
          "role": null,
          "core": "Model Permissible",
          "description": null,
          "derivation": "_null_",
          "plain_english": null,
          "approval": {
            "status": "approved",
            "reviewed_by": "admin",
            "reviewed_at": "2025-12-12T05:38:53.268896",
            "comment": "Bulk approved"
          }
        },
        {
          "domain": "BS",
          "name": "BSDISTR",
          "label": "Distribution Pattern of Finding",
          "data_type": "Char",
          "length": null,
          "format": null,
          "codelist": null,
          "codelist_values": [],
          "origin": null,
          "role": null,
          "core": "Model Permissible",
          "description": null,
          "derivation": "_null_",
          "plain_english": null,
          "approval": {
            "status": "approved",
            "reviewed_by": "admin",
            "reviewed_at": "2025-12-12T05:38:53.268896",
            "comment": "Bulk approved"
          }
        },
        {
          "domain": "BS",
          "name": "BSSTAT",
          "label": "Completion Status",
          "data_type": "Char",
          "length": null,
          "format": null,
          "codelist": "(ND)",
          "codelist_values": [],
          "origin": "CRF",
          "role": null,
          "core": "Perm",
          "description": null,
          "derivation": "[TUSC1]: set to \"NOT DONE\" if TUSCYN=\"No\";\n[PB]: set to \"NOT DONE\" if PBPERF=\"No\".",
          "plain_english": null,
          "approval": {
            "status": "approved",
            "reviewed_by": "admin",
            "reviewed_at": "2025-12-12T05:31:33.515209",
            "comment": "CDISC auto-approved: Exact match in SDTM v3.4 - BS.BSSTAT (100%)"
          }
        },
        {
          "domain": "BS",
          "name": "BSREASND",
          "label": "Reason Test Not Done",
          "data_type": "Char",
          "length": null,
          "format": null,
          "codelist": null,
          "codelist_values": [],
          "origin": "CRF",
          "role": null,
          "core": "Perm",
          "description": null,
          "derivation": "[TUSC1]: set to TURSNND.\n[PB]:set to PBRSN.",
          "plain_english": null,
          "approval": {
            "status": "approved",
            "reviewed_by": "admin",
            "reviewed_at": "2025-12-12T05:31:33.566365",
            "comment": "CDISC auto-approved: Exact match in SDTM v3.4 - BS.BSREASND (100%)"
          }
        },
        {
          "domain": "BS",
          "name": "BSXFN",
          "label": "External File Path",
          "data_type": "Char",
          "length": null,
          "format": null,
          "codelist": null,
          "codelist_values": [],
          "origin": "Assigned",
          "role": null,
          "core": "Model Permissible",
          "description": null,
          "derivation": "_null_",
          "plain_english": null,
          "approval": {
            "status": "approved",
            "reviewed_by": "admin",
            "reviewed_at": "2025-12-12T05:38:53.268896",
            "comment": "Bulk approved"
          }
        },
        {
          "domain": "BS",
          "name": "BSNAM",
          "label": "Vendor Name",
          "data_type": "Char",
          "length": null,
          "format": null,
          "codelist": null,
          "codelist_values": [],
          "origin": "eDT",
          "role": null,
          "core": "Exp",
          "description": null,
          "derivation": "Set to null.",
          "plain_english": null,
          "approval": {
            "status": "approved",
            "reviewed_by": "admin",
            "reviewed_at": "2025-12-12T05:31:33.640930",
            "comment": "CDISC auto-approved: Exact match in SDTM v3.4 - BS.BSNAM (100%)"
          }
        },
        {
          "domain": "BS",
          "name": "BSLOINC",
          "label": "LOINC Code",
          "data_type": "Char",
          "length": null,
          "format": null,
          "codelist": "(LOINC)",
          "codelist_values": [],
          "origin": "Assigned",
          "role": null,
          "core": "Model Permissible",
          "description": null,
          "derivation": "_null_",
          "plain_english": null,
          "approval": {
            "status": "approved",
            "reviewed_by": "admin",
            "reviewed_at": "2025-12-12T05:38:53.268896",
            "comment": "Bulk approved"
          }
        },
        {
          "domain": "BS",
          "name": "BSSPEC",
          "label": "Specimen Type",
          "data_type": "Char",
          "length": null,
          "format": null,
          "codelist": "(SPECTYPE)",
          "codelist_values": [],
          "origin": "CRF",
          "role": null,
          "core": "Exp",
          "description": null,
          "derivation": "[TUSC1]: Set to TUSCCAT1 if BSSTAT is not missing.",
          "plain_english": null,
          "approval": {
            "status": "approved",
            "reviewed_by": "admin",
            "reviewed_at": "2025-12-12T05:31:33.718298",
            "comment": "CDISC auto-approved: Exact match in SDTM v3.4 - BS.BSSPEC (100%)"
          }
        },
        {
          "domain": "BS",
          "name": "BSANTREG",
          "label": "Anatomical Region",
          "data_type": "Char",
          "length": null,
          "format": null,
          "codelist": null,
          "codelist_values": [],
          "origin": "Assigned",
          "role": null,
          "core": "Model Permissible",
          "description": null,
          "derivation": "_null_",
          "plain_english": null,
          "approval": {
            "status": "approved",
            "reviewed_by": "admin",
            "reviewed_at": "2025-12-12T05:31:33.767485",
            "comment": "CDISC auto-approved: Exact match in SDTM v3.4 - BS.BSANTREG (97%)"
          }
        },
        {
          "domain": "BS",
          "name": "BSSBSCND",
          "label": "Specimen Condition",
          "data_type": "Char",
          "length": null,
          "format": null,
          "codelist": "(SPECCOND)",
          "codelist_values": [],
          "origin": "Assigned",
          "role": null,
          "core": "Perm",
          "description": null,
          "derivation": "_null_",
          "plain_english": null,
          "approval": {
            "status": "approved",
            "reviewed_by": "admin",
            "reviewed_at": "2025-12-12T05:38:53.268896",
            "comment": "Bulk approved"
          }
        },
        {
          "domain": "BS",
          "name": "BSSBSUFL",
          "label": "Specimen Usability for the Test",
          "data_type": "Char",
          "length": null,
          "format": null,
          "codelist": "(N)",
          "codelist_values": [],
          "origin": "Assigned",
          "role": null,
          "core": "Model Permissible",
          "description": null,
          "derivation": "_null_",
          "plain_english": null,
          "approval": {
            "status": "approved",
            "reviewed_by": "admin",
            "reviewed_at": "2025-12-12T05:38:53.268896",
            "comment": "Bulk approved"
          }
        },
        {
          "domain": "BS",
          "name": "BSLOC",
          "label": "Specimen Collection Location",
          "data_type": "Char",
          "length": null,
          "format": null,
          "codelist": "(LOC)",
          "codelist_values": [],
          "origin": "CRF",
          "role": null,
          "core": "Model Permissible",
          "description": null,
          "derivation": "[TUSC1]: Set to TUTSITE1  in $BSLOC format.\nPlease refer to $BSLOC format.",
          "plain_english": null,
          "approval": {
            "status": "approved",
            "reviewed_by": "admin",
            "reviewed_at": "2025-12-12T05:38:53.268896",
            "comment": "Bulk approved"
          }
        },
        {
          "domain": "BS",
          "name": "BSLAT",
          "label": "Laterality",
          "data_type": "Char",
          "length": null,
          "format": null,
          "codelist": "(LAT)",
          "codelist_values": [],
          "origin": "CRF",
          "role": null,
          "core": "Model Permissible",
          "description": null,
          "derivation": "[TUSC1]:Set to \"LEFT\" if index \"Left\" in TUTSITE1, set to \"RIGHT\" if index \"Right\" in TUTSITE1, set to \"BILATERAL\" if index \"Bilateral\" in TUTSITE1.",
          "plain_english": null,
          "approval": {
            "status": "approved",
            "reviewed_by": "admin",
            "reviewed_at": "2025-12-12T05:38:53.268896",
            "comment": "Bulk approved"
          }
        },
        {
          "domain": "BS",
          "name": "BSDIR",
          "label": "Directionality",
          "data_type": "Char",
          "length": null,
          "format": null,
          "codelist": "(DIR)",
          "codelist_values": [],
          "origin": "Assigned",
          "role": null,
          "core": "Model Permissible",
          "description": null,
          "derivation": "_null_",
          "plain_english": null,
          "approval": {
            "status": "approved",
            "reviewed_by": "admin",
            "reviewed_at": "2025-12-12T05:38:53.268896",
            "comment": "Bulk approved"
          }
        },
        {
          "domain": "BS",
          "name": "BSPORTOT",
          "label": "Portion or Totality",
          "data_type": "Char",
          "length": null,
          "format": null,
          "codelist": "(PORTOT)",
          "codelist_values": [],
          "origin": "Assigned",
          "role": null,
          "core": "Model Permissible",
          "description": null,
          "derivation": "_null_",
          "plain_english": null,
          "approval": {
            "status": "approved",
            "reviewed_by": "admin",
            "reviewed_at": "2025-12-12T05:38:53.268896",
            "comment": "Bulk approved"
          }
        },
        {
          "domain": "BS",
          "name": "BSMETHOD",
          "label": "Method of Test or Examination",
          "data_type": "Char",
          "length": null,
          "format": null,
          "codelist": "(METHOD)",
          "codelist_values": [],
          "origin": "Assigned",
          "role": null,
          "core": "Perm",
          "description": null,
          "derivation": "_null_",
          "plain_english": null,
          "approval": {
            "status": "approved",
            "reviewed_by": "admin",
            "reviewed_at": "2025-12-12T05:31:33.965389",
            "comment": "CDISC auto-approved: Exact match in SDTM v3.4 - BS.BSMETHOD (100%)"
          }
        },
        {
          "domain": "BS",
          "name": "BSRUNID",
          "label": "Run ID",
          "data_type": "Char",
          "length": null,
          "format": null,
          "codelist": null,
          "codelist_values": [],
          "origin": "Assigned",
          "role": null,
          "core": "Model Permissible",
          "description": null,
          "derivation": "_null_",
          "plain_english": null,
          "approval": {
            "status": "approved",
            "reviewed_by": "admin",
            "reviewed_at": "2025-12-12T05:38:53.268896",
            "comment": "Bulk approved"
          }
        },
        {
          "domain": "BS",
          "name": "BSANMETH",
          "label": "Analysis Method",
          "data_type": "Char",
          "length": null,
          "format": null,
          "codelist": null,
          "codelist_values": [],
          "origin": "Assigned",
          "role": null,
          "core": "Model Permissible",
          "description": null,
          "derivation": "_null_",
          "plain_english": null,
          "approval": {
            "status": "approved",
            "reviewed_by": "admin",
            "reviewed_at": "2025-12-12T05:38:53.268896",
            "comment": "Bulk approved"
          }
        },
        {
          "domain": "BS",
          "name": "BSLEAD",
          "label": "Lead Identified to Collect Measurements",
          "data_type": "Char",
          "length": null,
          "format": null,
          "codelist": null,
          "codelist_values": [],
          "origin": "Assigned",
          "role": null,
          "core": "Model Permissible",
          "description": null,
          "derivation": "_null_",
          "plain_english": null,
          "approval": {
            "status": "approved",
            "reviewed_by": "admin",
            "reviewed_at": "2025-12-12T05:38:53.268896",
            "comment": "Bulk approved"
          }
        },
        {
          "domain": "BS",
          "name": "BSCSTATE",
          "label": "Consciousness State",
          "data_type": "Char",
          "length": null,
          "format": null,
          "codelist": null,
          "codelist_values": [],
          "origin": "Assigned",
          "role": null,
          "core": "Model Permissible",
          "description": null,
          "derivation": "_null_",
          "plain_english": null,
          "approval": {
            "status": "approved",
            "reviewed_by": "admin",
            "reviewed_at": "2025-12-12T05:38:53.268896",
            "comment": "Bulk approved"
          }
        },
        {
          "domain": "BS",
          "name": "BSLOBXFL",
          "label": "Last Observation Before Exposure Flag",
          "data_type": "Char",
          "length": null,
          "format": null,
          "codelist": "(Y)",
          "codelist_values": [],
          "origin": null,
          "role": null,
          "core": "Model Permissible",
          "description": null,
          "derivation": "Standard --LOBXFL population logic",
          "plain_english": null,
          "approval": {
            "status": "approved",
            "reviewed_by": "admin",
            "reviewed_at": "2025-12-12T05:38:53.268896",
            "comment": "Bulk approved"
          }
        },
        {
          "domain": "BS",
          "name": "BSBLFL",
          "label": "Baseline Flag",
          "data_type": "Char",
          "length": null,
          "format": null,
          "codelist": "(Y)",
          "codelist_values": [],
          "origin": "Derived",
          "role": null,
          "core": "Model Permissible",
          "description": null,
          "derivation": "Standard --BLFL population logic",
          "plain_english": null,
          "approval": {
            "status": "approved",
            "reviewed_by": "admin",
            "reviewed_at": "2025-12-12T05:31:34.139635",
            "comment": "CDISC auto-approved: Exact match in SDTM v3.4 - BS.BSBLFL (100%)"
          }
        },
        {
          "domain": "BS",
          "name": "BSFAST",
          "label": "Fasting Status",
          "data_type": "Char",
          "length": null,
          "format": null,
          "codelist": "(NY)",
          "codelist_values": [],
          "origin": "Assigned",
          "role": null,
          "core": "Perm",
          "description": null,
          "derivation": "_null_",
          "plain_english": null,
          "approval": {
            "status": "approved",
            "reviewed_by": "admin",
            "reviewed_at": "2025-12-12T05:38:53.268896",
            "comment": "Bulk approved"
          }
        },
        {
          "domain": "BS",
          "name": "BSDRVFL",
          "label": "Derived Flag",
          "data_type": "Char",
          "length": null,
          "format": null,
          "codelist": "(Y)",
          "codelist_values": [],
          "origin": "Assigned",
          "role": null,
          "core": "Perm",
          "description": null,
          "derivation": "_null_",
          "plain_english": null,
          "approval": {
            "status": "approved",
            "reviewed_by": "admin",
            "reviewed_at": "2025-12-12T05:38:53.268896",
            "comment": "Bulk approved"
          }
        },
        {
          "domain": "BS",
          "name": "BSEVAL",
          "label": "Evaluator",
          "data_type": "Char",
          "length": null,
          "format": null,
          "codelist": "(EVAL)",
          "codelist_values": [],
          "origin": "Assigned",
          "role": null,
          "core": "Model Permissible",
          "description": null,
          "derivation": "_null_",
          "plain_english": null,
          "approval": {
            "status": "approved",
            "reviewed_by": "admin",
            "reviewed_at": "2025-12-12T05:38:53.268896",
            "comment": "Bulk approved"
          }
        },
        {
          "domain": "BS",
          "name": "BSEVALID",
          "label": "Evaluator Identifier",
          "data_type": "Char",
          "length": null,
          "format": null,
          "codelist": "(MEDEVAL)",
          "codelist_values": [],
          "origin": "Assigned",
          "role": null,
          "core": "Model Permissible",
          "description": null,
          "derivation": "_null_",
          "plain_english": null,
          "approval": {
            "status": "approved",
            "reviewed_by": "admin",
            "reviewed_at": "2025-12-12T05:38:53.268896",
            "comment": "Bulk approved"
          }
        },
        {
          "domain": "BS",
          "name": "BSACPTFL",
          "label": "Accepted Record Flag",
          "data_type": "Char",
          "length": null,
          "format": null,
          "codelist": "(NY)",
          "codelist_values": [],
          "origin": "Assigned",
          "role": null,
          "core": "Model Permissible",
          "description": null,
          "derivation": "_null_",
          "plain_english": null,
          "approval": {
            "status": "approved",
            "reviewed_by": "admin",
            "reviewed_at": "2025-12-12T05:38:53.268896",
            "comment": "Bulk approved"
          }
        },
        {
          "domain": "BS",
          "name": "BSTOX",
          "label": "Toxicity",
          "data_type": "Char",
          "length": null,
          "format": null,
          "codelist": null,
          "codelist_values": [],
          "origin": "Assigned",
          "role": null,
          "core": "Model Permissible",
          "description": null,
          "derivation": "_null_",
          "plain_english": null,
          "approval": {
            "status": "approved",
            "reviewed_by": "admin",
            "reviewed_at": "2025-12-12T05:38:53.268896",
            "comment": "Bulk approved"
          }
        },
        {
          "domain": "BS",
          "name": "BSTOXGR",
          "label": "Toxicity Grade",
          "data_type": "Char",
          "length": null,
          "format": null,
          "codelist": null,
          "codelist_values": [],
          "origin": "Assigned",
          "role": null,
          "core": "Model Permissible",
          "description": null,
          "derivation": "_null_",
          "plain_english": null,
          "approval": {
            "status": "approved",
            "reviewed_by": "admin",
            "reviewed_at": "2025-12-12T05:38:53.268896",
            "comment": "Bulk approved"
          }
        },
        {
          "domain": "BS",
          "name": "BSLLOQ",
          "label": "Lower Limit of Quantitation",
          "data_type": "Num",
          "length": null,
          "format": null,
          "codelist": null,
          "codelist_values": [],
          "origin": "eDT",
          "role": null,
          "core": "Exp",
          "description": null,
          "derivation": "Set to null.",
          "plain_english": null,
          "approval": {
            "status": "approved",
            "reviewed_by": "admin",
            "reviewed_at": "2025-12-12T05:38:53.268896",
            "comment": "Bulk approved"
          }
        },
        {
          "domain": "BS",
          "name": "BSULOQ",
          "label": "Upper Limit of Quantitation",
          "data_type": "Num",
          "length": null,
          "format": null,
          "codelist": null,
          "codelist_values": [],
          "origin": "Assigned",
          "role": null,
          "core": "Perm",
          "description": null,
          "derivation": "_null_",
          "plain_english": null,
          "approval": {
            "status": "approved",
            "reviewed_by": "admin",
            "reviewed_at": "2025-12-12T05:38:53.268896",
            "comment": "Bulk approved"
          }
        },
        {
          "domain": "BS",
          "name": "BSREPNUM",
          "label": "Repetition Number",
          "data_type": "Num",
          "length": null,
          "format": null,
          "codelist": null,
          "codelist_values": [],
          "origin": null,
          "role": null,
          "core": "Model Permissible",
          "description": null,
          "derivation": null,
          "plain_english": null,
          "approval": {
            "status": "approved",
            "reviewed_by": "admin",
            "reviewed_at": "2025-12-12T05:38:53.268896",
            "comment": "Bulk approved"
          }
        },
        {
          "domain": "BS",
          "name": "VISITNUM",
          "label": "Visit Number",
          "data_type": "Num",
          "length": null,
          "format": null,
          "codelist": null,
          "codelist_values": [],
          "origin": "Derived",
          "role": null,
          "core": "Exp",
          "description": null,
          "derivation": "Standard VISITNUM population logic",
          "plain_english": null,
          "approval": {
            "status": "approved",
            "reviewed_by": "admin",
            "reviewed_at": "2025-12-12T05:31:34.439267",
            "comment": "CDISC auto-approved: Exact match in SDTM v3.4 - BS.VISITNUM (100%)"
          }
        },
        {
          "domain": "BS",
          "name": "VISIT",
          "label": "Visit Name",
          "data_type": "Char",
          "length": null,
          "format": null,
          "codelist": null,
          "codelist_values": [],
          "origin": "Assigned",
          "role": null,
          "core": "Perm",
          "description": null,
          "derivation": "Standard VISIT population logic",
          "plain_english": null,
          "approval": {
            "status": "approved",
            "reviewed_by": "admin",
            "reviewed_at": "2025-12-12T05:31:34.490124",
            "comment": "CDISC auto-approved: Exact match in SDTM v3.4 - BS.VISIT (100%)"
          }
        },
        {
          "domain": "BS",
          "name": "VISITDY",
          "label": "Planned Study Day of Visit",
          "data_type": "Num",
          "length": null,
          "format": null,
          "codelist": null,
          "codelist_values": [],
          "origin": "Assigned",
          "role": null,
          "core": "Perm",
          "description": null,
          "derivation": "_null_",
          "plain_english": null,
          "approval": {
            "status": "approved",
            "reviewed_by": "admin",
            "reviewed_at": "2025-12-12T05:31:34.539507",
            "comment": "CDISC auto-approved: Exact match in SDTM v3.4 - BS.VISITDY (100%)"
          }
        },
        {
          "domain": "BS",
          "name": "TAETORD",
          "label": "Planned Order of Element within Arm",
          "data_type": "Num",
          "length": null,
          "format": null,
          "codelist": null,
          "codelist_values": [],
          "origin": "Assigned",
          "role": null,
          "core": "Perm",
          "description": null,
          "derivation": "_null_",
          "plain_english": null,
          "approval": {
            "status": "approved",
            "reviewed_by": "admin",
            "reviewed_at": "2025-12-12T05:31:34.589893",
            "comment": "CDISC auto-approved: Name match in SDTM v3.4 (defined in AE) (85%)"
          }
        },
        {
          "domain": "BS",
          "name": "EPOCH",
          "label": "Epoch",
          "data_type": "Char",
          "length": null,
          "format": null,
          "codelist": "(EPOCH)",
          "codelist_values": [],
          "origin": "Derived",
          "role": null,
          "core": "Perm",
          "description": null,
          "derivation": "Standard EPOCH population logic",
          "plain_english": null,
          "approval": {
            "status": "approved",
            "reviewed_by": "admin",
            "reviewed_at": "2025-12-12T05:31:34.640915",
            "comment": "CDISC auto-approved: Name match in SDTM v3.4 (defined in AE) (85%)"
          }
        },
        {
          "domain": "BS",
          "name": "BSDTC",
          "label": "Date/Time of Specimen Collection",
          "data_type": "Char",
          "length": null,
          "format": null,
          "codelist": "ISO 8601",
          "codelist_values": [],
          "origin": "CRF",
          "role": null,
          "core": "Exp",
          "description": null,
          "derivation": "[TUSC1]:set to TUSCDAT_RAW in ISO 8601 format.\n[PB]:set to PBDAT_RAW and PBTIM in ISO 8601 format.",
          "plain_english": null,
          "approval": {
            "status": "approved",
            "reviewed_by": "admin",
            "reviewed_at": "2025-12-12T05:31:34.690209",
            "comment": "CDISC auto-approved: Exact match in SDTM v3.4 - BS.BSDTC (100%)"
          }
        },
        {
          "domain": "BS",
          "name": "BSSTDTC",
          "label": "Start Date/Time of Observation",
          "data_type": "Char",
          "length": null,
          "format": null,
          "codelist": "ISO 8601",
          "codelist_values": [],
          "origin": "Assigned",
          "role": null,
          "core": "Not Recommended",
          "description": null,
          "derivation": "_null_",
          "plain_english": null,
          "approval": {
            "status": "approved",
            "reviewed_by": "admin",
            "reviewed_at": "2025-12-12T05:38:53.268896",
            "comment": "Bulk approved"
          }
        },
        {
          "domain": "BS",
          "name": "BSENDTC",
          "label": "End Date/Time of Specimen Collection",
          "data_type": "Char",
          "length": null,
          "format": null,
          "codelist": "ISO 8601",
          "codelist_values": [],
          "origin": "Assigned",
          "role": null,
          "core": "Perm",
          "description": null,
          "derivation": "_null_",
          "plain_english": null,
          "approval": {
            "status": "approved",
            "reviewed_by": "admin",
            "reviewed_at": "2025-12-12T05:38:53.268896",
            "comment": "Bulk approved"
          }
        },
        {
          "domain": "BS",
          "name": "BSDY",
          "label": "Study Day of Specimen Collection",
          "data_type": "Num",
          "length": null,
          "format": null,
          "codelist": null,
          "codelist_values": [],
          "origin": "Derived",
          "role": null,
          "core": "Perm",
          "description": null,
          "derivation": "Standard --DY population logic",
          "plain_english": null,
          "approval": {
            "status": "approved",
            "reviewed_by": "admin",
            "reviewed_at": "2025-12-12T05:31:34.790743",
            "comment": "CDISC auto-approved: Exact match in SDTM v3.4 - BS.BSDY (100%)"
          }
        },
        {
          "domain": "BS",
          "name": "BSSTDY",
          "label": "Study Day of Start of Observation",
          "data_type": "Num",
          "length": null,
          "format": null,
          "codelist": null,
          "codelist_values": [],
          "origin": "Derived",
          "role": null,
          "core": "Model Permissible",
          "description": null,
          "derivation": "Standard --STDY population logic",
          "plain_english": null,
          "approval": {
            "status": "approved",
            "reviewed_by": "admin",
            "reviewed_at": "2025-12-12T05:38:53.268896",
            "comment": "Bulk approved"
          }
        },
        {
          "domain": "BS",
          "name": "BSENDY",
          "label": "Study Day of End of Observation",
          "data_type": "Num",
          "length": null,
          "format": null,
          "codelist": null,
          "codelist_values": [],
          "origin": "Derived",
          "role": null,
          "core": "Perm",
          "description": null,
          "derivation": "Standard --ENDY population logic",
          "plain_english": null,
          "approval": {
            "status": "approved",
            "reviewed_by": "admin",
            "reviewed_at": "2025-12-12T05:38:53.268896",
            "comment": "Bulk approved"
          }
        },
        {
          "domain": "BS",
          "name": "BSDUR",
          "label": "Duration",
          "data_type": "Char",
          "length": null,
          "format": null,
          "codelist": "ISO 8601",
          "codelist_values": [],
          "origin": "Assigned",
          "role": null,
          "core": "Model Permissible",
          "description": null,
          "derivation": "_null_",
          "plain_english": null,
          "approval": {
            "status": "approved",
            "reviewed_by": "admin",
            "reviewed_at": "2025-12-12T05:38:53.268896",
            "comment": "Bulk approved"
          }
        },
        {
          "domain": "BS",
          "name": "BSTPT",
          "label": "Planned Time Point Name",
          "data_type": "Char",
          "length": null,
          "format": null,
          "codelist": null,
          "codelist_values": [],
          "origin": "CRF",
          "role": null,
          "core": "Perm",
          "description": null,
          "derivation": "[PB]: set to PBTPT.",
          "plain_english": null,
          "approval": {
            "status": "approved",
            "reviewed_by": "admin",
            "reviewed_at": "2025-12-12T05:31:34.920200",
            "comment": "CDISC auto-approved: Exact match in SDTM v3.4 - BS.BSTPT (100%)"
          }
        },
        {
          "domain": "BS",
          "name": "BSTPTNUM",
          "label": "Planned Time Point Number",
          "data_type": "Num",
          "length": null,
          "format": null,
          "codelist": null,
          "codelist_values": [],
          "origin": "Derived",
          "role": null,
          "core": "Perm",
          "description": null,
          "derivation": "[PB]: set to PBTPT_STD",
          "plain_english": null,
          "approval": {
            "status": "approved",
            "reviewed_by": "admin",
            "reviewed_at": "2025-12-12T05:31:34.970249",
            "comment": "CDISC auto-approved: Exact match in SDTM v3.4 - BS.BSTPTNUM (100%)"
          }
        },
        {
          "domain": "BS",
          "name": "BSELTM",
          "label": "Planned Elapsed Time from Time Point Ref",
          "data_type": "Char",
          "length": null,
          "format": null,
          "codelist": "ISO 8601",
          "codelist_values": [],
          "origin": "Assigned",
          "role": null,
          "core": "Perm",
          "description": null,
          "derivation": "_null_",
          "plain_english": null,
          "approval": {
            "status": "approved",
            "reviewed_by": "admin",
            "reviewed_at": "2025-12-12T05:31:35.021134",
            "comment": "CDISC auto-approved: Exact match in SDTM v3.4 - BS.BSELTM (100%)"
          }
        },
        {
          "domain": "BS",
          "name": "BSTPTREF",
          "label": "Time Point Reference",
          "data_type": "Char",
          "length": null,
          "format": null,
          "codelist": null,
          "codelist_values": [],
          "origin": "Assigned",
          "role": null,
          "core": "Perm",
          "description": null,
          "derivation": "Only for PCSTAT is missing: connect VISIT and \"Dose\" with a blank.",
          "plain_english": null,
          "approval": {
            "status": "approved",
            "reviewed_by": "admin",
            "reviewed_at": "2025-12-12T05:31:35.071995",
            "comment": "CDISC auto-approved: Exact match in SDTM v3.4 - BS.BSTPTREF (100%)"
          }
        },
        {
          "domain": "BS",
          "name": "BSRFTDTC",
          "label": "Date/Time of Reference Point",
          "data_type": "Char",
          "length": null,
          "format": null,
          "codelist": "ISO 8601",
          "codelist_values": [],
          "origin": "Derived",
          "role": null,
          "core": "Perm",
          "description": null,
          "derivation": "Only for PCSTAT is missing:\n(1) Merge PC/PC1.INSTANCENAME and EC.INSTANCENAME per subject;\n(2) set to ECSTDAT_RAW and ECENTIM in ISO 8601 format if PCTPTNUM=2;\n      else set to ECSTDAT_RAW and ECSTTIM in ISO 8601 format.",
          "plain_english": null,
          "approval": {
            "status": "approved",
            "reviewed_by": "admin",
            "reviewed_at": "2025-12-12T05:31:35.164381",
            "comment": "CDISC auto-approved: Exact match in SDTM v3.4 - BS.BSRFTDTC (99%)"
          }
        },
        {
          "domain": "BS",
          "name": "BSSTRF",
          "label": "Start Relative to Reference Period",
          "data_type": "Char",
          "length": null,
          "format": null,
          "codelist": "(STENRF)",
          "codelist_values": [],
          "origin": "Assigned",
          "role": null,
          "core": "Model Permissible",
          "description": null,
          "derivation": "_null_",
          "plain_english": null,
          "approval": {
            "status": "approved",
            "reviewed_by": "admin",
            "reviewed_at": "2025-12-12T05:38:53.268896",
            "comment": "Bulk approved"
          }
        },
        {
          "domain": "BS",
          "name": "BSENRF",
          "label": "End Relative to Reference Period",
          "data_type": "Char",
          "length": null,
          "format": null,
          "codelist": "(STENRF)",
          "codelist_values": [],
          "origin": "Assigned",
          "role": null,
          "core": "Model Permissible",
          "description": null,
          "derivation": "_null_",
          "plain_english": null,
          "approval": {
            "status": "approved",
            "reviewed_by": "admin",
            "reviewed_at": "2025-12-12T05:38:53.268896",
            "comment": "Bulk approved"
          }
        },
        {
          "domain": "BS",
          "name": "BSEVLINT",
          "label": "Evaluation Interval",
          "data_type": "Char",
          "length": null,
          "format": null,
          "codelist": "ISO 8601",
          "codelist_values": [],
          "origin": "Assigned",
          "role": null,
          "core": "Perm",
          "description": null,
          "derivation": "_null_",
          "plain_english": null,
          "approval": {
            "status": "approved",
            "reviewed_by": "admin",
            "reviewed_at": "2025-12-12T05:38:53.268896",
            "comment": "Bulk approved"
          }
        },
        {
          "domain": "BS",
          "name": "BSEVINTX",
          "label": "Evaluation Interval Text",
          "data_type": "Char",
          "length": null,
          "format": null,
          "codelist": null,
          "codelist_values": [],
          "origin": "Assigned",
          "role": null,
          "core": "Model Permissible",
          "description": null,
          "derivation": "_null_",
          "plain_english": null,
          "approval": {
            "status": "approved",
            "reviewed_by": "admin",
            "reviewed_at": "2025-12-12T05:38:53.268896",
            "comment": "Bulk approved"
          }
        },
        {
          "domain": "BS",
          "name": "BSSTRTPT",
          "label": "Start Relative to Reference Time Point",
          "data_type": "Char",
          "length": null,
          "format": null,
          "codelist": "(STENRF)",
          "codelist_values": [],
          "origin": "Assigned",
          "role": null,
          "core": "Model Permissible",
          "description": null,
          "derivation": "_null_",
          "plain_english": null,
          "approval": {
            "status": "approved",
            "reviewed_by": "admin",
            "reviewed_at": "2025-12-12T05:38:53.268896",
            "comment": "Bulk approved"
          }
        },
        {
          "domain": "BS",
          "name": "BSSTTPT",
          "label": "Start Reference Time Point",
          "data_type": "Char",
          "length": null,
          "format": null,
          "codelist": null,
          "codelist_values": [],
          "origin": "Assigned",
          "role": null,
          "core": "Model Permissible",
          "description": null,
          "derivation": "_null_",
          "plain_english": null,
          "approval": {
            "status": "approved",
            "reviewed_by": "admin",
            "reviewed_at": "2025-12-12T05:38:53.268896",
            "comment": "Bulk approved"
          }
        },
        {
          "domain": "BS",
          "name": "BSENRTPT",
          "label": "End Relative to Reference Time Point",
          "data_type": "Char",
          "length": null,
          "format": null,
          "codelist": "(STENRF)",
          "codelist_values": [],
          "origin": "Assigned",
          "role": null,
          "core": "Model Permissible",
          "description": null,
          "derivation": "_null_",
          "plain_english": null,
          "approval": {
            "status": "approved",
            "reviewed_by": "admin",
            "reviewed_at": "2025-12-12T05:38:53.268896",
            "comment": "Bulk approved"
          }
        },
        {
          "domain": "BS",
          "name": "BSENTPT",
          "label": "End Reference Time Point",
          "data_type": "Char",
          "length": null,
          "format": null,
          "codelist": null,
          "codelist_values": [],
          "origin": "Assigned",
          "role": null,
          "core": "Model Permissible",
          "description": null,
          "derivation": "_null_",
          "plain_english": null,
          "approval": {
            "status": "approved",
            "reviewed_by": "admin",
            "reviewed_at": "2025-12-12T05:38:53.268896",
            "comment": "Bulk approved"
          }
        },
        {
          "domain": "BS",
          "name": "MIDS",
          "label": "Disease Milestone Instance Name",
          "data_type": "Char",
          "length": null,
          "format": null,
          "codelist": null,
          "codelist_values": [],
          "origin": null,
          "role": null,
          "core": "Model Permissible",
          "description": null,
          "derivation": "_null_",
          "plain_english": null,
          "approval": {
            "status": "approved",
            "reviewed_by": "admin",
            "reviewed_at": "2025-12-12T05:31:35.415400",
            "comment": "CDISC auto-approved: Name match in SDTM v3.4 (defined in ML) (85%)"
          }
        },
        {
          "domain": "BS",
          "name": "RELMIDS",
          "label": "Temporal Relation to Milestone Instance",
          "data_type": "Char",
          "length": null,
          "format": null,
          "codelist": null,
          "codelist_values": [],
          "origin": null,
          "role": null,
          "core": "Model Permissible",
          "description": null,
          "derivation": "_null_",
          "plain_english": null,
          "approval": {
            "status": "approved",
            "reviewed_by": "admin",
            "reviewed_at": "2025-12-12T05:31:35.468592",
            "comment": "CDISC auto-approved: Name match in SDTM v3.4 (defined in ML) (85%)"
          }
        },
        {
          "domain": "BS",
          "name": "MIDSDTC",
          "label": "Disease Milestone Instance Date/Time",
          "data_type": "Char",
          "length": null,
          "format": null,
          "codelist": null,
          "codelist_values": [],
          "origin": null,
          "role": null,
          "core": "Model Permissible",
          "description": null,
          "derivation": "_null_",
          "plain_english": null,
          "approval": {
            "status": "approved",
            "reviewed_by": "admin",
            "reviewed_at": "2025-12-12T05:31:35.520361",
            "comment": "CDISC auto-approved: Name match in SDTM v3.4 (defined in ML) (85%)"
          }
        },
        {
          "domain": "BS",
          "name": "BSSTINT",
          "label": "Planned Start of Assessment Interval",
          "data_type": "Char",
          "length": null,
          "format": null,
          "codelist": "ISO 8601",
          "codelist_values": [],
          "origin": "Assigned",
          "role": null,
          "core": "Model Permissible",
          "description": null,
          "derivation": "_null_",
          "plain_english": null,
          "approval": {
            "status": "approved",
            "reviewed_by": "admin",
            "reviewed_at": "2025-12-12T05:38:53.268896",
            "comment": "Bulk approved"
          }
        },
        {
          "domain": "BS",
          "name": "BSENINT",
          "label": "Planned End of Assessment Interval",
          "data_type": "Char",
          "length": null,
          "format": null,
          "codelist": "ISO 8601",
          "codelist_values": [],
          "origin": "Assigned",
          "role": null,
          "core": "Model Permissible",
          "description": null,
          "derivation": "_null_",
          "plain_english": null,
          "approval": {
            "status": "approved",
            "reviewed_by": "admin",
            "reviewed_at": "2025-12-12T05:38:53.268896",
            "comment": "Bulk approved"
          }
        }
      ],
      "approval": {
        "status": "pending",
        "reviewed_by": null,
        "reviewed_at": null,
        "comment": null
      }
    },
    {
      "name": "CM",
      "label": "CM Domain",
      "structure": "",
      "purpose": "",
      "keys": [],
      "variables": [
        {
          "domain": "CM",
          "name": "STUDYID",
          "label": "Study Identifier",
          "data_type": "Char",
          "length": null,
          "format": null,
          "codelist": null,
          "codelist_values": [],
          "origin": "Protocol",
          "role": null,
          "core": "Req",
          "description": null,
          "derivation": "Standard STUDYID population logic",
          "plain_english": null,
          "approval": {
            "status": "approved",
            "reviewed_by": "admin",
            "reviewed_at": "2025-12-12T05:31:35.622264",
            "comment": "CDISC auto-approved: Exact match in SDTM v3.4 - CM.STUDYID (100%)"
          }
        },
        {
          "domain": "CM",
          "name": "DOMAIN",
          "label": "Domain Abbreviation",
          "data_type": "Char",
          "length": null,
          "format": null,
          "codelist": "DOMAIN.CM",
          "codelist_values": [],
          "origin": "Assigned",
          "role": null,
          "core": "Req",
          "description": null,
          "derivation": "\"CM\"",
          "plain_english": null,
          "approval": {
            "status": "approved",
            "reviewed_by": "admin",
            "reviewed_at": "2025-12-12T05:31:35.671550",
            "comment": "CDISC auto-approved: Exact match in SDTM v3.4 - CM.DOMAIN (100%)"
          }
        },
        {
          "domain": "CM",
          "name": "USUBJID",
          "label": "Unique Subject Identifier",
          "data_type": "Char",
          "length": null,
          "format": null,
          "codelist": null,
          "codelist_values": [],
          "origin": "Derived",
          "role": null,
          "core": "Req",
          "description": null,
          "derivation": "Standard USUBJID population logic",
          "plain_english": null,
          "approval": {
            "status": "approved",
            "reviewed_by": "admin",
            "reviewed_at": "2025-12-12T05:31:35.722899",
            "comment": "CDISC auto-approved: Exact match in SDTM v3.4 - CM.USUBJID (100%)"
          }
        },
        {
          "domain": "CM",
          "name": "POOLID",
          "label": "Pool Identifier",
          "data_type": "Char",
          "length": null,
          "format": null,
          "codelist": null,
          "codelist_values": [],
          "origin": "Assigned",
          "role": null,
          "core": "Model Permissible",
          "description": null,
          "derivation": "_null_",
          "plain_english": null,
          "approval": {
            "status": "approved",
            "reviewed_by": "admin",
            "reviewed_at": "2025-12-12T05:31:35.779107",
            "comment": "CDISC auto-approved: Name match in SDTM v3.4 (defined in RELSUB) (85%)"
          }
        },
        {
          "domain": "CM",
          "name": "SPDEVID",
          "label": "Sponsor Device Identifier",
          "data_type": "Char",
          "length": null,
          "format": null,
          "codelist": null,
          "codelist_values": [],
          "origin": "Assigned",
          "role": null,
          "core": "Model Permissible",
          "description": null,
          "derivation": "_null_",
          "plain_english": null,
          "approval": {
            "status": "approved",
            "reviewed_by": "admin",
            "reviewed_at": "2025-12-12T05:31:35.830932",
            "comment": "CDISC auto-approved: Name match in SDTM v3.4 (defined in AE) (85%)"
          }
        },
        {
          "domain": "CM",
          "name": "NHOID",
          "label": "Non-Host Organism Identifier",
          "data_type": "Char",
          "length": null,
          "format": null,
          "codelist": null,
          "codelist_values": [],
          "origin": null,
          "role": null,
          "core": "Model Permissible",
          "description": null,
          "derivation": "_null_",
          "plain_english": null,
          "approval": {
            "status": "approved",
            "reviewed_by": "admin",
            "reviewed_at": "2025-12-12T05:31:35.882350",
            "comment": "CDISC auto-approved: Name match in SDTM v3.4 (defined in GF) (85%)"
          }
        },
        {
          "domain": "CM",
          "name": "FOCID",
          "label": "Focus of Study-Specific Interest",
          "data_type": "Char",
          "length": null,
          "format": null,
          "codelist": null,
          "codelist_values": [],
          "origin": null,
          "role": null,
          "core": "Model Permissible",
          "description": null,
          "derivation": "_null_",
          "plain_english": null,
          "approval": {
            "status": "approved",
            "reviewed_by": "admin",
            "reviewed_at": "2025-12-12T05:31:35.933194",
            "comment": "CDISC auto-approved: Name match in SDTM v3.4 (defined in MB) (85%)"
          }
        },
        {
          "domain": "CM",
          "name": "CMSEQ",
          "label": "Sequence Number",
          "data_type": "Num",
          "length": null,
          "format": null,
          "codelist": null,
          "codelist_values": [],
          "origin": "Derived",
          "role": null,
          "core": "Req",
          "description": null,
          "derivation": "Standard --SEQ population logic",
          "plain_english": null,
          "approval": {
            "status": "approved",
            "reviewed_by": "admin",
            "reviewed_at": "2025-12-12T05:31:35.983529",
            "comment": "CDISC auto-approved: Exact match in SDTM v3.4 - CM.CMSEQ (100%)"
          }
        },
        {
          "domain": "CM",
          "name": "CMGRPID",
          "label": "Group ID",
          "data_type": "Char",
          "length": null,
          "format": null,
          "codelist": null,
          "codelist_values": [],
          "origin": "CRF",
          "role": null,
          "core": "Perm",
          "description": null,
          "derivation": "[PR2]: set to PRGRMID_RAW.\n[CMCT]: set to CMREGID_RAW.",
          "plain_english": null,
          "approval": {
            "status": "approved",
            "reviewed_by": "admin",
            "reviewed_at": "2025-12-12T05:31:36.034457",
            "comment": "CDISC auto-approved: Exact match in SDTM v3.4 - CM.CMGRPID (100%)"
          }
        },
        {
          "domain": "CM",
          "name": "CMREFID",
          "label": "Reference ID",
          "data_type": "Char",
          "length": null,
          "format": null,
          "codelist": null,
          "codelist_values": [],
          "origin": "Assigned",
          "role": null,
          "core": "Model Permissible",
          "description": null,
          "derivation": "_null_",
          "plain_english": null,
          "approval": {
            "status": "approved",
            "reviewed_by": "admin",
            "reviewed_at": "2025-12-12T05:38:55.473741",
            "comment": "Bulk approved"
          }
        },
        {
          "domain": "CM",
          "name": "CMRECID",
          "label": "Invariant Record Identifier",
          "data_type": "Char",
          "length": null,
          "format": null,
          "codelist": null,
          "codelist_values": [],
          "origin": null,
          "role": null,
          "core": "Model Permissible",
          "description": null,
          "derivation": "_null_",
          "plain_english": null,
          "approval": {
            "status": "approved",
            "reviewed_by": "admin",
            "reviewed_at": "2025-12-12T05:38:55.473741",
            "comment": "Bulk approved"
          }
        },
        {
          "domain": "CM",
          "name": "CMSPID",
          "label": "Sponsor-Defined Identifier",
          "data_type": "Char",
          "length": null,
          "format": null,
          "codelist": null,
          "codelist_values": [],
          "origin": "Assigned",
          "role": null,
          "core": "Perm",
          "description": null,
          "derivation": "[PR2/CMSYSTN/CMCT]: set to RECORDPOSITION in character form.",
          "plain_english": null,
          "approval": {
            "status": "approved",
            "reviewed_by": "admin",
            "reviewed_at": "2025-12-12T05:31:36.135298",
            "comment": "CDISC auto-approved: Exact match in SDTM v3.4 - CM.CMSPID (100%)"
          }
        },
        {
          "domain": "CM",
          "name": "CMLNKID",
          "label": "Link ID",
          "data_type": "Char",
          "length": null,
          "format": null,
          "codelist": null,
          "codelist_values": [],
          "origin": "Assigned",
          "role": null,
          "core": "Model Permissible",
          "description": null,
          "derivation": "_null_",
          "plain_english": null,
          "approval": {
            "status": "approved",
            "reviewed_by": "admin",
            "reviewed_at": "2025-12-12T05:38:55.473741",
            "comment": "Bulk approved"
          }
        },
        {
          "domain": "CM",
          "name": "CMLNKGRP",
          "label": "Link Group ID",
          "data_type": "Char",
          "length": null,
          "format": null,
          "codelist": null,
          "codelist_values": [],
          "origin": "Assigned",
          "role": null,
          "core": "Model Permissible",
          "description": null,
          "derivation": "_null_",
          "plain_english": null,
          "approval": {
            "status": "approved",
            "reviewed_by": "admin",
            "reviewed_at": "2025-12-12T05:38:55.473741",
            "comment": "Bulk approved"
          }
        },
        {
          "domain": "CM",
          "name": "CMTRT",
          "label": "Reported Name of Drug, Med, or Therapy",
          "data_type": "Char",
          "length": null,
          "format": null,
          "codelist": null,
          "codelist_values": [],
          "origin": "CRF",
          "role": null,
          "core": "Req",
          "description": null,
          "derivation": "[PR2]: set to PRTRTO in upper case text if PRTRT1_STD = 99;\nelse set to PRTRT1 in upper case text.\n[CMSYSTN/CMCT]: set to CMTRT1 in upper case text.",
          "plain_english": null,
          "approval": {
            "status": "approved",
            "reviewed_by": "admin",
            "reviewed_at": "2025-12-12T05:31:36.246504",
            "comment": "CDISC auto-approved: Exact match in SDTM v3.4 - CM.CMTRT (100%)"
          }
        },
        {
          "domain": "CM",
          "name": "CMMODIFY",
          "label": "Modified Reported Name",
          "data_type": "Char",
          "length": null,
          "format": null,
          "codelist": null,
          "codelist_values": [],
          "origin": "Assigned",
          "role": null,
          "core": "Perm",
          "description": null,
          "derivation": "_null_",
          "plain_english": null,
          "approval": {
            "status": "approved",
            "reviewed_by": "admin",
            "reviewed_at": "2025-12-12T05:31:36.297255",
            "comment": "CDISC auto-approved: Exact match in SDTM v3.4 - CM.CMMODIFY (100%)"
          }
        },
        {
          "domain": "CM",
          "name": "CMDECOD",
          "label": "Standardized Medication Name",
          "data_type": "Char",
          "length": null,
          "format": null,
          "codelist": "WHODD",
          "codelist_values": [],
          "origin": "Assigned",
          "role": null,
          "core": "Perm",
          "description": null,
          "derivation": "[PR2]: set to PR2_CODED.PREFERRED_NAME.\n[CMSYSTN]: set to CM_CODED.PREFERRED_NAME.\n[CMCT]: set to CMCT_CODED.PREFERRED_NAME.",
          "plain_english": null,
          "approval": {
            "status": "approved",
            "reviewed_by": "admin",
            "reviewed_at": "2025-12-12T05:31:36.347667",
            "comment": "CDISC auto-approved: Exact match in SDTM v3.4 - CM.CMDECOD (100%)"
          }
        },
        {
          "domain": "CM",
          "name": "CMCAT",
          "label": "Category for Medication",
          "data_type": "Char",
          "length": null,
          "format": null,
          "codelist": null,
          "codelist_values": [],
          "origin": "CRF",
          "role": null,
          "core": "Perm",
          "description": null,
          "derivation": "[PR2]: set to \"PRIOR CANCER THERAPY\".\n[CMSYSTN]: set to \"CONCOMITANT MEDICATION\".\n[CMCT]: set to \"FOLLOW-UP CANCER THERAPY\".",
          "plain_english": null,
          "approval": {
            "status": "approved",
            "reviewed_by": "admin",
            "reviewed_at": "2025-12-12T05:31:36.398059",
            "comment": "CDISC auto-approved: Exact match in SDTM v3.4 - CM.CMCAT (100%)"
          }
        },
        {
          "domain": "CM",
          "name": "CMSCAT",
          "label": "Subcategory for Medication",
          "data_type": "Char",
          "length": null,
          "format": null,
          "codelist": null,
          "codelist_values": [],
          "origin": "CRF",
          "role": null,
          "core": "Perm",
          "description": null,
          "derivation": "[PR2]: set to PRCAT2 in upper case text.",
          "plain_english": null,
          "approval": {
            "status": "approved",
            "reviewed_by": "admin",
            "reviewed_at": "2025-12-12T05:31:36.448955",
            "comment": "CDISC auto-approved: Exact match in SDTM v3.4 - CM.CMSCAT (100%)"
          }
        },
        {
          "domain": "CM",
          "name": "CMPRESP",
          "label": "CM Pre-specified",
          "data_type": "Char",
          "length": null,
          "format": null,
          "codelist": "(Y)",
          "codelist_values": [],
          "origin": "CRF",
          "role": null,
          "core": "Perm",
          "description": null,
          "derivation": null,
          "plain_english": null,
          "approval": {
            "status": "approved",
            "reviewed_by": "admin",
            "reviewed_at": "2025-12-12T05:31:36.498752",
            "comment": "CDISC auto-approved: Exact match in SDTM v3.4 - CM.CMPRESP (100%)"
          }
        },
        {
          "domain": "CM",
          "name": "CMOCCUR",
          "label": "CM Occurrence",
          "data_type": "Char",
          "length": null,
          "format": null,
          "codelist": "(NY)",
          "codelist_values": [],
          "origin": "CRF",
          "role": null,
          "core": "Perm",
          "description": null,
          "derivation": null,
          "plain_english": null,
          "approval": {
            "status": "approved",
            "reviewed_by": "admin",
            "reviewed_at": "2025-12-12T05:31:36.549051",
            "comment": "CDISC auto-approved: Exact match in SDTM v3.4 - CM.CMOCCUR (100%)"
          }
        },
        {
          "domain": "CM",
          "name": "CMSTAT",
          "label": "Completion Status",
          "data_type": "Char",
          "length": null,
          "format": null,
          "codelist": "(ND)",
          "codelist_values": [],
          "origin": "Assigned",
          "role": null,
          "core": "Perm",
          "description": null,
          "derivation": null,
          "plain_english": null,
          "approval": {
            "status": "approved",
            "reviewed_by": "admin",
            "reviewed_at": "2025-12-12T05:31:36.598897",
            "comment": "CDISC auto-approved: Exact match in SDTM v3.4 - CM.CMSTAT (100%)"
          }
        },
        {
          "domain": "CM",
          "name": "CMREASND",
          "label": "Reason Medication Not Collected",
          "data_type": "Char",
          "length": null,
          "format": null,
          "codelist": null,
          "codelist_values": [],
          "origin": "Assigned",
          "role": null,
          "core": "Perm",
          "description": null,
          "derivation": "_null_",
          "plain_english": null,
          "approval": {
            "status": "approved",
            "reviewed_by": "admin",
            "reviewed_at": "2025-12-12T05:31:36.648929",
            "comment": "CDISC auto-approved: Exact match in SDTM v3.4 - CM.CMREASND (100%)"
          }
        },
        {
          "domain": "CM",
          "name": "CMINDC",
          "label": "Indication",
          "data_type": "Char",
          "length": null,
          "format": null,
          "codelist": null,
          "codelist_values": [],
          "origin": "CRF",
          "role": null,
          "core": "Perm",
          "description": null,
          "derivation": "[CMSYSTN]: set to \"Multiple\" if multiple indication are selected;\nelse set to \"Adverse Event\" if CMINDC1_RAW = \"1\";\nelse set to \"Medical History\" if CMINDC2_RAW = \"1\";\nelse set to \"Relevant Tumor History\" if CMINDC3_RAW = \"1\";\nelse set to \"Preventive\" if CMINDC4_RAW = \"1\";\nelse set to \"Other\" if CMINDC5_RAW = \"1\".",
          "plain_english": null,
          "approval": {
            "status": "approved",
            "reviewed_by": "admin",
            "reviewed_at": "2025-12-12T05:31:36.698499",
            "comment": "CDISC auto-approved: Exact match in SDTM v3.4 - CM.CMINDC (100%)"
          }
        },
        {
          "domain": "CM",
          "name": "CMCLAS",
          "label": "Medication Class",
          "data_type": "Char",
          "length": null,
          "format": null,
          "codelist": "WHODD",
          "codelist_values": [],
          "origin": "Assigned",
          "role": null,
          "core": "Perm",
          "description": null,
          "derivation": "[PR2]: set to PR2_CODED.ATC_NAME.\n[CMSYSTN]: set to CM_CODED.ATC_NAME.\n[CMCT]: set to CMCT_CODED.ATC_NAME.",
          "plain_english": null,
          "approval": {
            "status": "approved",
            "reviewed_by": "admin",
            "reviewed_at": "2025-12-12T05:31:36.748783",
            "comment": "CDISC auto-approved: Exact match in SDTM v3.4 - CM.CMCLAS (100%)"
          }
        },
        {
          "domain": "CM",
          "name": "CMCLASCD",
          "label": "Medication Class Code",
          "data_type": "Char",
          "length": null,
          "format": null,
          "codelist": "WHODD",
          "codelist_values": [],
          "origin": "Assigned",
          "role": null,
          "core": "Perm",
          "description": null,
          "derivation": "[PR2]: set to PR2_CODED.ATC_CODE.\n[CMSYSTN]: set to CM_CODED.ATC_CODE.\n[CMCT]: set to CMCT_CODED.ATC_CODE.",
          "plain_english": null,
          "approval": {
            "status": "approved",
            "reviewed_by": "admin",
            "reviewed_at": "2025-12-12T05:31:36.803678",
            "comment": "CDISC auto-approved: Exact match in SDTM v3.4 - CM.CMCLASCD (100%)"
          }
        },
        {
          "domain": "CM",
          "name": "CMDOSE",
          "label": "Dose per Administration",
          "data_type": "Num",
          "length": null,
          "format": null,
          "codelist": null,
          "codelist_values": [],
          "origin": "CRF",
          "role": null,
          "core": "Perm",
          "description": null,
          "derivation": "[PR2]: set to PRDOSTOT in numeric format.\n[CMSYSTN/CMCT]: set to CMDSTXT in numeric format.",
          "plain_english": null,
          "approval": {
            "status": "approved",
            "reviewed_by": "admin",
            "reviewed_at": "2025-12-12T05:31:36.852718",
            "comment": "CDISC auto-approved: Exact match in SDTM v3.4 - CM.CMDOSE (100%)"
          }
        },
        {
          "domain": "CM",
          "name": "CMDOSTXT",
          "label": "Dose Description",
          "data_type": "Char",
          "length": null,
          "format": null,
          "codelist": null,
          "codelist_values": [],
          "origin": "CRF",
          "role": null,
          "core": "Perm",
          "description": null,
          "derivation": "[PR2]: set to PRDOSTOT if SDTM.CM.CMDOSE is missing.\n[CMSYSTN/CMCT]: set to CMDSTXT if SDTM.CM.CMDOSE is missing.",
          "plain_english": null,
          "approval": {
            "status": "approved",
            "reviewed_by": "admin",
            "reviewed_at": "2025-12-12T05:31:36.902426",
            "comment": "CDISC auto-approved: Exact match in SDTM v3.4 - CM.CMDOSTXT (100%)"
          }
        },
        {
          "domain": "CM",
          "name": "CMDOSU",
          "label": "Dose Units",
          "data_type": "Char",
          "length": null,
          "format": null,
          "codelist": "(UNIT)",
          "codelist_values": [],
          "origin": "CRF",
          "role": null,
          "core": "Perm",
          "description": null,
          "derivation": "[PR2]: set to \"ug\" if PRDOSU1_STD = 1;\nelse set to \"mg\" if PRDOSU1_STD = 2;\nelse set to \"g\" if PRDOSU1_STD = 3;\nelse set to \"mL\" if PRDOSU1_STD = 4;\nelse set to \"IU\" if PRDOSU1_STD = 9;\nelse set to PRDOSU1 in upper case text.\n[CMSYSTN/CMCT]: set to \"ug\" if CMDOSU_STD = 1;\nelse set to \"mg\" if CMDOSU_STD = 2;\nelse set to \"g\" if CMDOSU_STD = 3;\nelse set to \"mL\" if CMDOSU_STD = 4;\nelse set to \"IU\" if CMDOSU_STD = 9;\nelse set to CMDOSU in upper case text.",
          "plain_english": null,
          "approval": {
            "status": "approved",
            "reviewed_by": "admin",
            "reviewed_at": "2025-12-12T05:31:36.952230",
            "comment": "CDISC auto-approved: Exact match in SDTM v3.4 - CM.CMDOSU (100%)"
          }
        },
        {
          "domain": "CM",
          "name": "CMDOSFRM",
          "label": "Dose Form",
          "data_type": "Char",
          "length": null,
          "format": null,
          "codelist": "(FRM)",
          "codelist_values": [],
          "origin": "Assigned",
          "role": null,
          "core": "Perm",
          "description": null,
          "derivation": null,
          "plain_english": null,
          "approval": {
            "status": "approved",
            "reviewed_by": "admin",
            "reviewed_at": "2025-12-12T05:31:37.004103",
            "comment": "CDISC auto-approved: Exact match in SDTM v3.4 - CM.CMDOSFRM (100%)"
          }
        },
        {
          "domain": "CM",
          "name": "CMDOSFRQ",
          "label": "Dosing Frequency per Interval",
          "data_type": "Char",
          "length": null,
          "format": null,
          "codelist": "(FREQ)",
          "codelist_values": [],
          "origin": "CRF",
          "role": null,
          "core": "Perm",
          "description": null,
          "derivation": "[PR2]: set to \"QD\" if PRDSFRQ1_STD = 1;\nelse set to \"BID\" if PRDSFRQ1_STD = 2;\nelse set to \"TID\" if PRDSFRQ1_STD = 3;\nelse set to \"QID\" if PRDSFRQ1_STD = 4;\nelse set to \"1 TIME PER WEEK\" if PRDSFRQ1_STD = 5;\nelse set to \"EVERY 2 WEEKS\" if PRDSFRQ1_STD = 6;\nelse set to \"EVERY 3 WEEKS\" if PRDSFRQ1_STD = 7;\nelse set to \"2 TIMES PER WEEK\" if PRDSFRQ1_STD = 8;\nelse set to \"QM\" if PRDSFRQ1_STD = 11;\nelse set to \"PRN\" if PRDSFRQ1_STD = 12;\nelse set to \"ONCE\" if PRDSFRQ1_STD = 13;\nelse set to \"QOD\" if PRDSFRQ1_STD = 14;\nelse set to \"QHS\" if PRDSFRQ1_STD = 15;\nelse set to PRDSFRQ1 in upper case text.\n[CMSYSTN/CMCT]: set to \"QD\" if CMDOSFRQ_STD = 1;\nelse set to \"BID\" if CMDOSFRQ_STD = 2;\nelse set to \"TID\" if CMDOSFRQ_STD = 3;\nelse set to \"QID\" if CMDOSFRQ_STD = 4;\nelse set to \"PRN\" if CMDOSFRQ_STD = 5;\nelse set to \"QOD\" if CMDOSFRQ_STD = 6;\nelse set to \"1 TIME PER WEEK\" if CMDOSFRQ_STD = 7;\nelse set to \"QHS\" if CMDOSFRQ_STD = 8;\nelse set to \"OTHER\" if CMDOSFRQ_STD = 99.",
          "plain_english": null,
          "approval": {
            "status": "approved",
            "reviewed_by": "admin",
            "reviewed_at": "2025-12-12T05:31:37.054601",
            "comment": "CDISC auto-approved: Exact match in SDTM v3.4 - CM.CMDOSFRQ (100%)"
          }
        },
        {
          "domain": "CM",
          "name": "CMDOSTOT",
          "label": "Total Daily Dose",
          "data_type": "Num",
          "length": null,
          "format": null,
          "codelist": null,
          "codelist_values": [],
          "origin": "Assigned",
          "role": null,
          "core": "Perm",
          "description": null,
          "derivation": "_null_",
          "plain_english": null,
          "approval": {
            "status": "approved",
            "reviewed_by": "admin",
            "reviewed_at": "2025-12-12T05:31:37.105014",
            "comment": "CDISC auto-approved: Exact match in SDTM v3.4 - CM.CMDOSTOT (100%)"
          }
        },
        {
          "domain": "CM",
          "name": "CMDOSRGM",
          "label": "Intended Dose Regimen",
          "data_type": "Char",
          "length": null,
          "format": null,
          "codelist": null,
          "codelist_values": [],
          "origin": "Assigned",
          "role": null,
          "core": "Perm",
          "description": null,
          "derivation": "_null_",
          "plain_english": null,
          "approval": {
            "status": "approved",
            "reviewed_by": "admin",
            "reviewed_at": "2025-12-12T05:31:37.155880",
            "comment": "CDISC auto-approved: Exact match in SDTM v3.4 - CM.CMDOSRGM (100%)"
          }
        },
        {
          "domain": "CM",
          "name": "CMROUTE",
          "label": "Route of Administration",
          "data_type": "Char",
          "length": null,
          "format": null,
          "codelist": "(ROUTE)",
          "codelist_values": [],
          "origin": "CRF",
          "role": null,
          "core": "Perm",
          "description": null,
          "derivation": "[PR2]: set to PRROUTE in upper case text.\n[CMSYSTN/CMCT]: set to CMROUTE in upper case text.",
          "plain_english": null,
          "approval": {
            "status": "approved",
            "reviewed_by": "admin",
            "reviewed_at": "2025-12-12T05:31:37.209615",
            "comment": "CDISC auto-approved: Exact match in SDTM v3.4 - CM.CMROUTE (100%)"
          }
        },
        {
          "domain": "CM",
          "name": "CMLOC",
          "label": "Location of Dose Administration",
          "data_type": "Char",
          "length": null,
          "format": null,
          "codelist": "(LOC)",
          "codelist_values": [],
          "origin": "CRF",
          "role": null,
          "core": "Model Permissible",
          "description": null,
          "derivation": null,
          "plain_english": null,
          "approval": {
            "status": "approved",
            "reviewed_by": "admin",
            "reviewed_at": "2025-12-12T05:38:55.473741",
            "comment": "Bulk approved"
          }
        },
        {
          "domain": "CM",
          "name": "CMLAT",
          "label": "Laterality",
          "data_type": "Char",
          "length": null,
          "format": null,
          "codelist": "(LAT)",
          "codelist_values": [],
          "origin": "Assigned",
          "role": null,
          "core": "Model Permissible",
          "description": null,
          "derivation": "_null_",
          "plain_english": null,
          "approval": {
            "status": "approved",
            "reviewed_by": "admin",
            "reviewed_at": "2025-12-12T05:38:55.473741",
            "comment": "Bulk approved"
          }
        },
        {
          "domain": "CM",
          "name": "CMDIR",
          "label": "Directionality",
          "data_type": "Char",
          "length": null,
          "format": null,
          "codelist": "(DIR)",
          "codelist_values": [],
          "origin": "Assigned",
          "role": null,
          "core": "Model Permissible",
          "description": null,
          "derivation": "_null_",
          "plain_english": null,
          "approval": {
            "status": "approved",
            "reviewed_by": "admin",
            "reviewed_at": "2025-12-12T05:38:55.473741",
            "comment": "Bulk approved"
          }
        },
        {
          "domain": "CM",
          "name": "CMPORTOT",
          "label": "Portion or Totality",
          "data_type": "Char",
          "length": null,
          "format": null,
          "codelist": "(PORTOT)",
          "codelist_values": [],
          "origin": "Assigned",
          "role": null,
          "core": "Model Permissible",
          "description": null,
          "derivation": "_null_",
          "plain_english": null,
          "approval": {
            "status": "approved",
            "reviewed_by": "admin",
            "reviewed_at": "2025-12-12T05:38:55.473741",
            "comment": "Bulk approved"
          }
        },
        {
          "domain": "CM",
          "name": "CMFAST",
          "label": "Fasting Status",
          "data_type": "Char",
          "length": null,
          "format": null,
          "codelist": "(NY)",
          "codelist_values": [],
          "origin": "Assigned",
          "role": null,
          "core": "Model Permissible",
          "description": null,
          "derivation": "_null_",
          "plain_english": null,
          "approval": {
            "status": "approved",
            "reviewed_by": "admin",
            "reviewed_at": "2025-12-12T05:38:55.473741",
            "comment": "Bulk approved"
          }
        },
        {
          "domain": "CM",
          "name": "CMPSTRG",
          "label": "Pharmaceutical Strength",
          "data_type": "Num",
          "length": null,
          "format": null,
          "codelist": null,
          "codelist_values": [],
          "origin": "Assigned",
          "role": null,
          "core": "Model Permissible",
          "description": null,
          "derivation": "_null_",
          "plain_english": null,
          "approval": {
            "status": "approved",
            "reviewed_by": "admin",
            "reviewed_at": "2025-12-12T05:38:55.473741",
            "comment": "Bulk approved"
          }
        },
        {
          "domain": "CM",
          "name": "CMPSTRGU",
          "label": "Pharmaceutical Strength Units",
          "data_type": "Char",
          "length": null,
          "format": null,
          "codelist": null,
          "codelist_values": [],
          "origin": "Assigned",
          "role": null,
          "core": "Model Permissible",
          "description": null,
          "derivation": "_null_",
          "plain_english": null,
          "approval": {
            "status": "approved",
            "reviewed_by": "admin",
            "reviewed_at": "2025-12-12T05:38:55.473741",
            "comment": "Bulk approved"
          }
        },
        {
          "domain": "CM",
          "name": "CMTRTV",
          "label": "Treatment Vehicle",
          "data_type": "Char",
          "length": null,
          "format": null,
          "codelist": null,
          "codelist_values": [],
          "origin": "Assigned",
          "role": null,
          "core": "Model Permissible",
          "description": null,
          "derivation": "_null_",
          "plain_english": null,
          "approval": {
            "status": "approved",
            "reviewed_by": "admin",
            "reviewed_at": "2025-12-12T05:38:55.473741",
            "comment": "Bulk approved"
          }
        },
        {
          "domain": "CM",
          "name": "CMVAMT",
          "label": "Treatment Vehicle Amount",
          "data_type": "Num",
          "length": null,
          "format": null,
          "codelist": null,
          "codelist_values": [],
          "origin": "Assigned",
          "role": null,
          "core": "Model Permissible",
          "description": null,
          "derivation": "_null_",
          "plain_english": null,
          "approval": {
            "status": "approved",
            "reviewed_by": "admin",
            "reviewed_at": "2025-12-12T05:38:55.473741",
            "comment": "Bulk approved"
          }
        },
        {
          "domain": "CM",
          "name": "CMVAMTU",
          "label": "Treatment Vehicle Amount Units",
          "data_type": "Char",
          "length": null,
          "format": null,
          "codelist": "(UNIT)",
          "codelist_values": [],
          "origin": "Assigned",
          "role": null,
          "core": "Model Permissible",
          "description": null,
          "derivation": "_null_",
          "plain_english": null,
          "approval": {
            "status": "approved",
            "reviewed_by": "admin",
            "reviewed_at": "2025-12-12T05:38:55.473741",
            "comment": "Bulk approved"
          }
        },
        {
          "domain": "CM",
          "name": "CMADJ",
          "label": "Reason for Dose Adjustment",
          "data_type": "Char",
          "length": null,
          "format": null,
          "codelist": null,
          "codelist_values": [],
          "origin": "Assigned",
          "role": null,
          "core": "Perm",
          "description": null,
          "derivation": "_null_",
          "plain_english": null,
          "approval": {
            "status": "approved",
            "reviewed_by": "admin",
            "reviewed_at": "2025-12-12T05:31:37.531710",
            "comment": "CDISC auto-approved: Exact match in SDTM v3.4 - CM.CMADJ (100%)"
          }
        },
        {
          "domain": "CM",
          "name": "CMRSDISC",
          "label": "Reason the Intervention Was Discontinued",
          "data_type": "Char",
          "length": null,
          "format": null,
          "codelist": null,
          "codelist_values": [],
          "origin": "CRF",
          "role": null,
          "core": "Perm",
          "description": null,
          "derivation": "[PR2]: set to PREREAS if PREREAS is non-missing.",
          "plain_english": null,
          "approval": {
            "status": "approved",
            "reviewed_by": "admin",
            "reviewed_at": "2025-12-12T05:31:37.581701",
            "comment": "CDISC auto-approved: Exact match in SDTM v3.4 - CM.CMRSDISC (100%)"
          }
        },
        {
          "domain": "CM",
          "name": "VISITNUM",
          "label": "Visit Number",
          "data_type": "Num",
          "length": null,
          "format": null,
          "codelist": null,
          "codelist_values": [],
          "origin": "Derived",
          "role": null,
          "core": "Model Permissible",
          "description": null,
          "derivation": "Standard VISITNUM population logic",
          "plain_english": null,
          "approval": {
            "status": "approved",
            "reviewed_by": "admin",
            "reviewed_at": "2025-12-12T05:31:37.672686",
            "comment": "CDISC auto-approved: Name match in SDTM v3.4 (defined in AG) (85%)"
          }
        },
        {
          "domain": "CM",
          "name": "VISIT",
          "label": "Visit Name",
          "data_type": "Char",
          "length": null,
          "format": null,
          "codelist": null,
          "codelist_values": [],
          "origin": "Assigned",
          "role": null,
          "core": "Model Permissible",
          "description": null,
          "derivation": "Standard VISIT population logic",
          "plain_english": null,
          "approval": {
            "status": "approved",
            "reviewed_by": "admin",
            "reviewed_at": "2025-12-12T05:31:37.723721",
            "comment": "CDISC auto-approved: Name match in SDTM v3.4 (defined in AG) (85%)"
          }
        },
        {
          "domain": "CM",
          "name": "VISITDY",
          "label": "Planned Study Day of Visit",
          "data_type": "Num",
          "length": null,
          "format": null,
          "codelist": null,
          "codelist_values": [],
          "origin": "Assigned",
          "role": null,
          "core": "Model Permissible",
          "description": null,
          "derivation": "_null_",
          "plain_english": null,
          "approval": {
            "status": "approved",
            "reviewed_by": "admin",
            "reviewed_at": "2025-12-12T05:31:37.775847",
            "comment": "CDISC auto-approved: Name match in SDTM v3.4 (defined in AG) (85%)"
          }
        },
        {
          "domain": "CM",
          "name": "TAETORD",
          "label": "Planned Order of Element within Arm",
          "data_type": "Num",
          "length": null,
          "format": null,
          "codelist": null,
          "codelist_values": [],
          "origin": "Assigned",
          "role": null,
          "core": "Perm",
          "description": null,
          "derivation": "_null_",
          "plain_english": null,
          "approval": {
            "status": "approved",
            "reviewed_by": "admin",
            "reviewed_at": "2025-12-12T05:31:37.825267",
            "comment": "CDISC auto-approved: Exact match in SDTM v3.4 - CM.TAETORD (100%)"
          }
        },
        {
          "domain": "CM",
          "name": "EPOCH",
          "label": "Epoch",
          "data_type": "Char",
          "length": null,
          "format": null,
          "codelist": "(EPOCH)",
          "codelist_values": [],
          "origin": "Derived",
          "role": null,
          "core": "Perm",
          "description": null,
          "derivation": "Standard EPOCH population logic",
          "plain_english": null,
          "approval": {
            "status": "approved",
            "reviewed_by": "admin",
            "reviewed_at": "2025-12-12T05:31:37.874713",
            "comment": "CDISC auto-approved: Exact match in SDTM v3.4 - CM.EPOCH (100%)"
          }
        },
        {
          "domain": "CM",
          "name": "CMDTC",
          "label": "Date/Time of Collection",
          "data_type": "Char",
          "length": null,
          "format": null,
          "codelist": "ISO 8601",
          "codelist_values": [],
          "origin": "Assigned",
          "role": null,
          "core": "Model Permissible",
          "description": null,
          "derivation": "_null_",
          "plain_english": null,
          "approval": {
            "status": "approved",
            "reviewed_by": "admin",
            "reviewed_at": "2025-12-12T05:38:55.473741",
            "comment": "Bulk approved"
          }
        },
        {
          "domain": "CM",
          "name": "CMSTDTC",
          "label": "Start Date/Time of Medication",
          "data_type": "Char",
          "length": null,
          "format": null,
          "codelist": "ISO 8601",
          "codelist_values": [],
          "origin": "CRF",
          "role": null,
          "core": "Perm",
          "description": null,
          "derivation": "[PR2]: set to PRSTDAT_RAW in ISO 8601 format.\n[CMSYSTN/CMCT]: set to CMSTDAT_RAW in ISO 8601 format.",
          "plain_english": null,
          "approval": {
            "status": "approved",
            "reviewed_by": "admin",
            "reviewed_at": "2025-12-12T05:31:37.949408",
            "comment": "CDISC auto-approved: Exact match in SDTM v3.4 - CM.CMSTDTC (100%)"
          }
        },
        {
          "domain": "CM",
          "name": "CMENDTC",
          "label": "End Date/Time of Medication",
          "data_type": "Char",
          "length": null,
          "format": null,
          "codelist": "ISO 8601",
          "codelist_values": [],
          "origin": "CRF",
          "role": null,
          "core": "Perm",
          "description": null,
          "derivation": "[PR2]: set to PRENDAT_RAW in ISO 8601 format.\n[CMSYSTN/CMCT]: set to CMENDAT_RAW in ISO 8601 format.",
          "plain_english": null,
          "approval": {
            "status": "approved",
            "reviewed_by": "admin",
            "reviewed_at": "2025-12-12T05:31:38.003764",
            "comment": "CDISC auto-approved: Exact match in SDTM v3.4 - CM.CMENDTC (100%)"
          }
        },
        {
          "domain": "CM",
          "name": "CMDY",
          "label": "Study Day of Visit/Collection/Exam",
          "data_type": "Num",
          "length": null,
          "format": null,
          "codelist": null,
          "codelist_values": [],
          "origin": "Derived",
          "role": null,
          "core": "Model Permissible",
          "description": null,
          "derivation": "Standard --DY population logic",
          "plain_english": null,
          "approval": {
            "status": "approved",
            "reviewed_by": "admin",
            "reviewed_at": "2025-12-12T05:38:55.473741",
            "comment": "Bulk approved"
          }
        },
        {
          "domain": "CM",
          "name": "CMSTDY",
          "label": "Study Day of Start of Medication",
          "data_type": "Num",
          "length": null,
          "format": null,
          "codelist": null,
          "codelist_values": [],
          "origin": "Derived",
          "role": null,
          "core": "Perm",
          "description": null,
          "derivation": "Standard --STDY population logic",
          "plain_english": null,
          "approval": {
            "status": "approved",
            "reviewed_by": "admin",
            "reviewed_at": "2025-12-12T05:31:38.078150",
            "comment": "CDISC auto-approved: Exact match in SDTM v3.4 - CM.CMSTDY (100%)"
          }
        },
        {
          "domain": "CM",
          "name": "CMENDY",
          "label": "Study Day of End of Medication",
          "data_type": "Num",
          "length": null,
          "format": null,
          "codelist": null,
          "codelist_values": [],
          "origin": "Derived",
          "role": null,
          "core": "Perm",
          "description": null,
          "derivation": "Standard --ENDY population logic",
          "plain_english": null,
          "approval": {
            "status": "approved",
            "reviewed_by": "admin",
            "reviewed_at": "2025-12-12T05:31:38.128088",
            "comment": "CDISC auto-approved: Exact match in SDTM v3.4 - CM.CMENDY (100%)"
          }
        },
        {
          "domain": "CM",
          "name": "CMDUR",
          "label": "Duration",
          "data_type": "Char",
          "length": null,
          "format": null,
          "codelist": "ISO 8601",
          "codelist_values": [],
          "origin": "Assigned",
          "role": null,
          "core": "Perm",
          "description": null,
          "derivation": "_null_",
          "plain_english": null,
          "approval": {
            "status": "approved",
            "reviewed_by": "admin",
            "reviewed_at": "2025-12-12T05:31:38.177970",
            "comment": "CDISC auto-approved: Exact match in SDTM v3.4 - CM.CMDUR (100%)"
          }
        },
        {
          "domain": "CM",
          "name": "CMTPT",
          "label": "Planned Time Point Name",
          "data_type": "Char",
          "length": null,
          "format": null,
          "codelist": null,
          "codelist_values": [],
          "origin": "Assigned",
          "role": null,
          "core": "Model Permissible",
          "description": null,
          "derivation": "_null_",
          "plain_english": null,
          "approval": {
            "status": "approved",
            "reviewed_by": "admin",
            "reviewed_at": "2025-12-12T05:38:55.473741",
            "comment": "Bulk approved"
          }
        },
        {
          "domain": "CM",
          "name": "CMTPTNUM",
          "label": "Planned Time Point Number",
          "data_type": "Num",
          "length": null,
          "format": null,
          "codelist": null,
          "codelist_values": [],
          "origin": "Derived",
          "role": null,
          "core": "Model Permissible",
          "description": null,
          "derivation": "_null_",
          "plain_english": null,
          "approval": {
            "status": "approved",
            "reviewed_by": "admin",
            "reviewed_at": "2025-12-12T05:38:55.473741",
            "comment": "Bulk approved"
          }
        },
        {
          "domain": "CM",
          "name": "CMELTM",
          "label": "Planned Elapsed Time from Time Point Ref",
          "data_type": "Char",
          "length": null,
          "format": null,
          "codelist": "ISO 8601",
          "codelist_values": [],
          "origin": "Assigned",
          "role": null,
          "core": "Model Permissible",
          "description": null,
          "derivation": "_null_",
          "plain_english": null,
          "approval": {
            "status": "approved",
            "reviewed_by": "admin",
            "reviewed_at": "2025-12-12T05:38:55.473741",
            "comment": "Bulk approved"
          }
        },
        {
          "domain": "CM",
          "name": "CMTPTREF",
          "label": "Time Point Reference",
          "data_type": "Char",
          "length": null,
          "format": null,
          "codelist": null,
          "codelist_values": [],
          "origin": "Assigned",
          "role": null,
          "core": "Model Permissible",
          "description": null,
          "derivation": "_null_",
          "plain_english": null,
          "approval": {
            "status": "approved",
            "reviewed_by": "admin",
            "reviewed_at": "2025-12-12T05:38:55.473741",
            "comment": "Bulk approved"
          }
        },
        {
          "domain": "CM",
          "name": "CMRFTDTC",
          "label": "Date/Time of Reference Time Point",
          "data_type": "Char",
          "length": null,
          "format": null,
          "codelist": "ISO 8601",
          "codelist_values": [],
          "origin": "Assigned",
          "role": null,
          "core": "Model Permissible",
          "description": null,
          "derivation": "_null_",
          "plain_english": null,
          "approval": {
            "status": "approved",
            "reviewed_by": "admin",
            "reviewed_at": "2025-12-12T05:38:55.473741",
            "comment": "Bulk approved"
          }
        },
        {
          "domain": "CM",
          "name": "CMSTRF",
          "label": "Start Relative to Reference Period",
          "data_type": "Char",
          "length": null,
          "format": null,
          "codelist": "(STENRF)",
          "codelist_values": [],
          "origin": "Assigned",
          "role": null,
          "core": "Perm",
          "description": null,
          "derivation": "_null_",
          "plain_english": null,
          "approval": {
            "status": "approved",
            "reviewed_by": "admin",
            "reviewed_at": "2025-12-12T05:31:38.366344",
            "comment": "CDISC auto-approved: Exact match in SDTM v3.4 - CM.CMSTRF (100%)"
          }
        },
        {
          "domain": "CM",
          "name": "CMENRF",
          "label": "End Relative to Reference Period",
          "data_type": "Char",
          "length": null,
          "format": null,
          "codelist": "(STENRF)",
          "codelist_values": [],
          "origin": "Assigned",
          "role": null,
          "core": "Perm",
          "description": null,
          "derivation": "_null_",
          "plain_english": null,
          "approval": {
            "status": "approved",
            "reviewed_by": "admin",
            "reviewed_at": "2025-12-12T05:31:38.427373",
            "comment": "CDISC auto-approved: Exact match in SDTM v3.4 - CM.CMENRF (100%)"
          }
        },
        {
          "domain": "CM",
          "name": "CMEVLINT",
          "label": "Evaluation Interval",
          "data_type": "Char",
          "length": null,
          "format": null,
          "codelist": "ISO 8601",
          "codelist_values": [],
          "origin": "Assigned",
          "role": null,
          "core": "Model Permissible",
          "description": null,
          "derivation": "_null_",
          "plain_english": null,
          "approval": {
            "status": "approved",
            "reviewed_by": "admin",
            "reviewed_at": "2025-12-12T05:38:55.473741",
            "comment": "Bulk approved"
          }
        },
        {
          "domain": "CM",
          "name": "CMEVINTX",
          "label": "Evaluation Interval Text",
          "data_type": "Char",
          "length": null,
          "format": null,
          "codelist": null,
          "codelist_values": [],
          "origin": "Assigned",
          "role": null,
          "core": "Model Permissible",
          "description": null,
          "derivation": "_null_",
          "plain_english": null,
          "approval": {
            "status": "approved",
            "reviewed_by": "admin",
            "reviewed_at": "2025-12-12T05:38:55.473741",
            "comment": "Bulk approved"
          }
        },
        {
          "domain": "CM",
          "name": "CMSTRTPT",
          "label": "Start Relative to Reference Time Point",
          "data_type": "Char",
          "length": null,
          "format": null,
          "codelist": "(STENRF)",
          "codelist_values": [],
          "origin": "Assigned",
          "role": null,
          "core": "Perm",
          "description": null,
          "derivation": "_null_",
          "plain_english": null,
          "approval": {
            "status": "approved",
            "reviewed_by": "admin",
            "reviewed_at": "2025-12-12T05:31:38.558509",
            "comment": "CDISC auto-approved: Exact match in SDTM v3.4 - CM.CMSTRTPT (100%)"
          }
        },
        {
          "domain": "CM",
          "name": "CMSTTPT",
          "label": "Start Reference Time Point",
          "data_type": "Char",
          "length": null,
          "format": null,
          "codelist": null,
          "codelist_values": [],
          "origin": "Assigned",
          "role": null,
          "core": "Perm",
          "description": null,
          "derivation": "_null_",
          "plain_english": null,
          "approval": {
            "status": "approved",
            "reviewed_by": "admin",
            "reviewed_at": "2025-12-12T05:31:38.619858",
            "comment": "CDISC auto-approved: Exact match in SDTM v3.4 - CM.CMSTTPT (100%)"
          }
        },
        {
          "domain": "CM",
          "name": "CMENRTPT",
          "label": "End Relative to Reference Time Point",
          "data_type": "Char",
          "length": null,
          "format": null,
          "codelist": "(STENRF)",
          "codelist_values": [],
          "origin": "CRF",
          "role": null,
          "core": "Perm",
          "description": null,
          "derivation": "[CMSYSTN/CMCT]: set to \"ONGOING\" if CMONGO = \"Yes\";\nelse set to \"BEFORE\" if CMONGO = \"No\".",
          "plain_english": null,
          "approval": {
            "status": "approved",
            "reviewed_by": "admin",
            "reviewed_at": "2025-12-12T05:31:38.678036",
            "comment": "CDISC auto-approved: Exact match in SDTM v3.4 - CM.CMENRTPT (100%)"
          }
        },
        {
          "domain": "CM",
          "name": "CMENTPT",
          "label": "End Reference Time Point",
          "data_type": "Char",
          "length": null,
          "format": null,
          "codelist": null,
          "codelist_values": [],
          "origin": "Assigned",
          "role": null,
          "core": "Perm",
          "description": null,
          "derivation": "Set to SDTM.DM.RFPENDTC if CMENRTPT is non-missing.",
          "plain_english": null,
          "approval": {
            "status": "approved",
            "reviewed_by": "admin",
            "reviewed_at": "2025-12-12T05:31:38.732494",
            "comment": "CDISC auto-approved: Exact match in SDTM v3.4 - CM.CMENTPT (100%)"
          }
        },
        {
          "domain": "CM",
          "name": "MIDS",
          "label": "Disease Milestone Instance Name",
          "data_type": "Char",
          "length": null,
          "format": null,
          "codelist": null,
          "codelist_values": [],
          "origin": null,
          "role": null,
          "core": "Model Permissible",
          "description": null,
          "derivation": "_null_",
          "plain_english": null,
          "approval": {
            "status": "approved",
            "reviewed_by": "admin",
            "reviewed_at": "2025-12-12T05:31:38.785634",
            "comment": "CDISC auto-approved: Name match in SDTM v3.4 (defined in ML) (85%)"
          }
        },
        {
          "domain": "CM",
          "name": "RELMIDS",
          "label": "Temporal Relation to Milestone Instance",
          "data_type": "Char",
          "length": null,
          "format": null,
          "codelist": null,
          "codelist_values": [],
          "origin": null,
          "role": null,
          "core": "Model Permissible",
          "description": null,
          "derivation": "_null_",
          "plain_english": null,
          "approval": {
            "status": "approved",
            "reviewed_by": "admin",
            "reviewed_at": "2025-12-12T05:31:38.841424",
            "comment": "CDISC auto-approved: Name match in SDTM v3.4 (defined in ML) (85%)"
          }
        },
        {
          "domain": "CM",
          "name": "MIDSDTC",
          "label": "Disease Milestone Instance Date/Time",
          "data_type": "Char",
          "length": null,
          "format": null,
          "codelist": "ISO 8601",
          "codelist_values": [],
          "origin": null,
          "role": null,
          "core": "Model Permissible",
          "description": null,
          "derivation": "_null_",
          "plain_english": null,
          "approval": {
            "status": "approved",
            "reviewed_by": "admin",
            "reviewed_at": "2025-12-12T05:31:38.892440",
            "comment": "CDISC auto-approved: Name match in SDTM v3.4 (defined in ML) (85%)"
          }
        },
        {
          "domain": "CM",
          "name": "CMSTINT",
          "label": "Planned Start of Assessment Interval",
          "data_type": "Char",
          "length": null,
          "format": null,
          "codelist": "ISO 8601",
          "codelist_values": [],
          "origin": "Assigned",
          "role": null,
          "core": "Model Permissible",
          "description": null,
          "derivation": "_null_",
          "plain_english": null,
          "approval": {
            "status": "approved",
            "reviewed_by": "admin",
            "reviewed_at": "2025-12-12T05:38:55.473741",
            "comment": "Bulk approved"
          }
        },
        {
          "domain": "CM",
          "name": "CMENINT",
          "label": "Planned End of Assessment Interval",
          "data_type": "Char",
          "length": null,
          "format": null,
          "codelist": "ISO 8601",
          "codelist_values": [],
          "origin": "Assigned",
          "role": null,
          "core": "Model Permissible",
          "description": null,
          "derivation": "_null_",
          "plain_english": null,
          "approval": {
            "status": "approved",
            "reviewed_by": "admin",
            "reviewed_at": "2025-12-12T05:38:55.473741",
            "comment": "Bulk approved"
          }
        }
      ],
      "approval": {
        "status": "pending",
        "reviewed_by": null,
        "reviewed_at": null,
        "comment": null
      }
    },
    {
      "name": "CV",
      "label": "CV Domain",
      "structure": "",
      "purpose": "",
      "keys": [],
      "variables": [
        {
          "domain": "CV",
          "name": "STUDYID",
          "label": "Study Identifier",
          "data_type": "Char",
          "length": null,
          "format": null,
          "codelist": null,
          "codelist_values": [],
          "origin": "Protocol",
          "role": null,
          "core": "Req",
          "description": null,
          "derivation": "Standard STUDYID population logic",
          "plain_english": null,
          "approval": {
            "status": "approved",
            "reviewed_by": "admin",
            "reviewed_at": "2025-12-12T05:31:38.992520",
            "comment": "CDISC auto-approved: Exact match in SDTM v3.4 - CV.STUDYID (100%)"
          }
        },
        {
          "domain": "CV",
          "name": "DOMAIN",
          "label": "Domain Abbreviation",
          "data_type": "Char",
          "length": null,
          "format": null,
          "codelist": "DOMAIN.CV",
          "codelist_values": [],
          "origin": "Assigned",
          "role": null,
          "core": "Req",
          "description": null,
          "derivation": "\"CV\"",
          "plain_english": null,
          "approval": {
            "status": "approved",
            "reviewed_by": "admin",
            "reviewed_at": "2025-12-12T05:31:39.042632",
            "comment": "CDISC auto-approved: Exact match in SDTM v3.4 - CV.DOMAIN (100%)"
          }
        },
        {
          "domain": "CV",
          "name": "USUBJID",
          "label": "Unique Subject Identifier",
          "data_type": "Char",
          "length": null,
          "format": null,
          "codelist": null,
          "codelist_values": [],
          "origin": "Derived",
          "role": null,
          "core": "Req",
          "description": null,
          "derivation": "Standard USUBJID population logic",
          "plain_english": null,
          "approval": {
            "status": "approved",
            "reviewed_by": "admin",
            "reviewed_at": "2025-12-12T05:31:39.092266",
            "comment": "CDISC auto-approved: Exact match in SDTM v3.4 - CV.USUBJID (100%)"
          }
        },
        {
          "domain": "CV",
          "name": "POOLID",
          "label": "Pool Identifier",
          "data_type": "Char",
          "length": null,
          "format": null,
          "codelist": null,
          "codelist_values": [],
          "origin": "Assigned",
          "role": null,
          "core": "Model Permissible",
          "description": null,
          "derivation": "_null_",
          "plain_english": null,
          "approval": {
            "status": "approved",
            "reviewed_by": "admin",
            "reviewed_at": "2025-12-12T05:31:39.144335",
            "comment": "CDISC auto-approved: Name match in SDTM v3.4 (defined in RELSUB) (85%)"
          }
        },
        {
          "domain": "CV",
          "name": "SPDEVID",
          "label": "Sponsor Device Identifier",
          "data_type": "Char",
          "length": null,
          "format": null,
          "codelist": null,
          "codelist_values": [],
          "origin": "Assigned",
          "role": null,
          "core": "Model Permissible",
          "description": null,
          "derivation": "_null_",
          "plain_english": null,
          "approval": {
            "status": "approved",
            "reviewed_by": "admin",
            "reviewed_at": "2025-12-12T05:31:39.196324",
            "comment": "CDISC auto-approved: Name match in SDTM v3.4 (defined in AE) (85%)"
          }
        },
        {
          "domain": "CV",
          "name": "NHOID",
          "label": "Non-Host Organism Identifier",
          "data_type": "Char",
          "length": null,
          "format": null,
          "codelist": null,
          "codelist_values": [],
          "origin": null,
          "role": null,
          "core": "Model Permissible",
          "description": null,
          "derivation": "_null_",
          "plain_english": null,
          "approval": {
            "status": "approved",
            "reviewed_by": "admin",
            "reviewed_at": "2025-12-12T05:31:39.252199",
            "comment": "CDISC auto-approved: Name match in SDTM v3.4 (defined in GF) (85%)"
          }
        },
        {
          "domain": "CV",
          "name": "FOCID",
          "label": "Focus of Study-Specific Interest",
          "data_type": "Char",
          "length": null,
          "format": null,
          "codelist": null,
          "codelist_values": [],
          "origin": null,
          "role": null,
          "core": "Model Permissible",
          "description": null,
          "derivation": "_null_",
          "plain_english": null,
          "approval": {
            "status": "approved",
            "reviewed_by": "admin",
            "reviewed_at": "2025-12-12T05:31:39.303224",
            "comment": "CDISC auto-approved: Name match in SDTM v3.4 (defined in MB) (85%)"
          }
        },
        {
          "domain": "CV",
          "name": "CVSEQ",
          "label": "Sequence Number",
          "data_type": "Num",
          "length": null,
          "format": null,
          "codelist": null,
          "codelist_values": [],
          "origin": "Derived",
          "role": null,
          "core": "Req",
          "description": null,
          "derivation": "Standard --SEQ population logic",
          "plain_english": null,
          "approval": {
            "status": "approved",
            "reviewed_by": "admin",
            "reviewed_at": "2025-12-12T05:31:39.373754",
            "comment": "CDISC auto-approved: Exact match in SDTM v3.4 - CV.CVSEQ (100%)"
          }
        },
        {
          "domain": "CV",
          "name": "CVGRPID",
          "label": "Group ID",
          "data_type": "Char",
          "length": null,
          "format": null,
          "codelist": null,
          "codelist_values": [],
          "origin": "Assigned",
          "role": null,
          "core": "Perm",
          "description": null,
          "derivation": "_null_",
          "plain_english": null,
          "approval": {
            "status": "approved",
            "reviewed_by": "admin",
            "reviewed_at": "2025-12-12T05:31:39.425424",
            "comment": "CDISC auto-approved: Exact match in SDTM v3.4 - CV.CVGRPID (100%)"
          }
        },
        {
          "domain": "CV",
          "name": "CVREFID",
          "label": "Reference ID",
          "data_type": "Char",
          "length": null,
          "format": null,
          "codelist": null,
          "codelist_values": [],
          "origin": "Assigned",
          "role": null,
          "core": "Perm",
          "description": null,
          "derivation": "_null_",
          "plain_english": null,
          "approval": {
            "status": "approved",
            "reviewed_by": "admin",
            "reviewed_at": "2025-12-12T05:31:39.475230",
            "comment": "CDISC auto-approved: Exact match in SDTM v3.4 - CV.CVREFID (100%)"
          }
        },
        {
          "domain": "CV",
          "name": "CVRECID",
          "label": "Invariant Record Identifier",
          "data_type": "Char",
          "length": null,
          "format": null,
          "codelist": null,
          "codelist_values": [],
          "origin": "CRF",
          "role": null,
          "core": "Model Permissible",
          "description": null,
          "derivation": "_null_",
          "plain_english": null,
          "approval": {
            "status": "approved",
            "reviewed_by": "admin",
            "reviewed_at": "2025-12-12T05:38:57.519506",
            "comment": "Bulk approved"
          }
        },
        {
          "domain": "CV",
          "name": "CVSPID",
          "label": "Sponsor-Defined Identifier",
          "data_type": "Char",
          "length": null,
          "format": null,
          "codelist": null,
          "codelist_values": [],
          "origin": "Assigned",
          "role": null,
          "core": "Perm",
          "description": null,
          "derivation": "_null_",
          "plain_english": null,
          "approval": {
            "status": "approved",
            "reviewed_by": "admin",
            "reviewed_at": "2025-12-12T05:31:39.553504",
            "comment": "CDISC auto-approved: Exact match in SDTM v3.4 - CV.CVSPID (100%)"
          }
        },
        {
          "domain": "CV",
          "name": "CVLNKID",
          "label": "Link ID",
          "data_type": "Char",
          "length": null,
          "format": null,
          "codelist": null,
          "codelist_values": [],
          "origin": "Derived",
          "role": null,
          "core": "Perm",
          "description": null,
          "derivation": "_null_",
          "plain_english": null,
          "approval": {
            "status": "approved",
            "reviewed_by": "admin",
            "reviewed_at": "2025-12-12T05:31:39.603680",
            "comment": "CDISC auto-approved: Exact match in SDTM v3.4 - CV.CVLNKID (100%)"
          }
        },
        {
          "domain": "CV",
          "name": "CVLNKGRP",
          "label": "Link Group",
          "data_type": "Char",
          "length": null,
          "format": null,
          "codelist": null,
          "codelist_values": [],
          "origin": "Assigned",
          "role": null,
          "core": "Perm",
          "description": null,
          "derivation": "_null_",
          "plain_english": null,
          "approval": {
            "status": "approved",
            "reviewed_by": "admin",
            "reviewed_at": "2025-12-12T05:31:39.653777",
            "comment": "CDISC auto-approved: Exact match in SDTM v3.4 - CV.CVLNKGRP (100%)"
          }
        },
        {
          "domain": "CV",
          "name": "CVTESTCD",
          "label": "Short Name of Cardiovascular Test",
          "data_type": "Char",
          "length": null,
          "format": null,
          "codelist": "(CVTESTCD)",
          "codelist_values": [],
          "origin": "CRF",
          "role": null,
          "core": "Req",
          "description": null,
          "derivation": "[UCG]: set to \"CVALL\" if UCGPERF_STD = 2;\nset to \"LVEF\" if UCGLVEF is non-missing and UCGPERF_STD = 1;\nset to \"LVEDD\" if UCGLVED is non-missing and UCGPERF_STD = 1;\nset to \"INTP\" if UCGCLSIG is non-missing and UCGPERF_STD = 1.",
          "plain_english": null,
          "approval": {
            "status": "approved",
            "reviewed_by": "admin",
            "reviewed_at": "2025-12-12T05:31:39.704341",
            "comment": "CDISC auto-approved: Exact match in SDTM v3.4 - CV.CVTESTCD (100%)"
          }
        },
        {
          "domain": "CV",
          "name": "CVTEST",
          "label": "Name of Cardiovascular Test",
          "data_type": "Char",
          "length": null,
          "format": null,
          "codelist": "(CVTEST)",
          "codelist_values": [],
          "origin": "Assigned",
          "role": null,
          "core": "Req",
          "description": null,
          "derivation": "Set to CVTESTCD in $CVTEST format.",
          "plain_english": null,
          "approval": {
            "status": "approved",
            "reviewed_by": "admin",
            "reviewed_at": "2025-12-12T05:31:39.754623",
            "comment": "CDISC auto-approved: Exact match in SDTM v3.4 - CV.CVTEST (100%)"
          }
        },
        {
          "domain": "CV",
          "name": "CVTSTDTL",
          "label": "Measurement, Test or Examination Detail",
          "data_type": "Char",
          "length": null,
          "format": null,
          "codelist": null,
          "codelist_values": [],
          "origin": "Derived",
          "role": null,
          "core": "Model Permissible",
          "description": null,
          "derivation": "_null_",
