[
  {
    "id": 1,
    "question": "How many subjects are in the safety population?",
    "expected_answer": 232,
    "category": "Demographics",
    "sql": "SELECT COUNT(*) FROM adsl WHERE SAFFL = 'Y'"
  },
  {
    "id": 2,
    "question": "What is the gender distribution of patients?",
    "expected_answer": "{'F': 205, 'M': 134}",
    "category": "Demographics",
    "sql": "SELECT SEX, COUNT(*) FROM adsl GROUP BY SEX"
  },
  {
    "id": 3,
    "question": "How many patients are over 65 years old?",
    "expected_answer": 106,
    "category": "Demographics",
    "sql": "SELECT COUNT(*) FROM adsl WHERE AGE > 65"
  },
  {
    "id": 4,
    "question": "How many patients had nausea?",
    "expected_answer": 82,
    "category": "Adverse Events",
    "sql": "SELECT COUNT(DISTINCT USUBJID) FROM adae WHERE UPPER(AEDECOD) = 'NAUSEA'"
  },
  {
    "id": 5,
    "question": "How many patients had serious adverse events?",
    "expected_answer": 96,
    "category": "Adverse Events",
    "sql": "SELECT COUNT(DISTINCT USUBJID) FROM adae WHERE AESER = 'Y'"
  },
  {
    "id": 6,
    "question": "What are the top 5 most common adverse events?",
    "expected_answer": "{'White blood cell count decreased': 342, 'Neutrophil count decreased': 305, 'Anaemia': 249, 'Platelet count decreased': 193, 'Aspartate aminotransferase increased': 148}",
    "category": "Adverse Events",
    "sql": "SELECT AEDECOD, COUNT(*) FROM adae GROUP BY AEDECOD ORDER BY COUNT(*) DESC LIMIT 5"
  },
  {
    "id": 7,
    "question": "How many patients had anaemia?",
    "expected_answer": 140,
    "category": "Adverse Events",
    "sql": "SELECT COUNT(DISTINCT USUBJID) FROM adae WHERE UPPER(AEDECOD) = 'ANAEMIA'"
  },
  {
    "id": 8,
    "question": "How many adverse event records are there in total?",
    "expected_answer": 4332,
    "category": "Adverse Events",
    "sql": "SELECT COUNT(*) FROM adae"
  },
  {
    "id": 9,
    "question": "How many female patients had adverse events?",
    "expected_answer": 145,
    "category": "Combined",
    "sql": "SELECT COUNT(DISTINCT USUBJID) FROM adae WHERE SEX = 'F'"
  },
  {
    "id": 10,
    "question": "How many treatment-emergent adverse events occurred?",
    "expected_answer": 3946,
    "category": "Combined",
    "sql": "SELECT COUNT(*) FROM adae WHERE TRTEMFL = 'Y'"
  },
  {
    "id": 11,
    "question": "How many patients had anaemia and also had Hypertension?",
    "expected_answer": 13,
    "category": "Complex",
    "sql": "SELECT COUNT(DISTINCT a.USUBJID) FROM adae a\n            WHERE a.USUBJID IN (SELECT USUBJID FROM adae WHERE UPPER(AEDECOD) = 'ANAEMIA')\n            AND a.USUBJID IN (SELECT USUBJID FROM adae WHERE UPPER(AEDECOD) = 'HYPERTENSION')"
  },
  {
    "id": 12,
    "question": "How many subjects reported Grade 3+ Hypertension?",
    "expected_answer": 4,
    "category": "Complex",
    "sql": "SELECT COUNT(DISTINCT USUBJID) FROM adae WHERE UPPER(AEDECOD) = 'HYPERTENSION' AND ATOXGR >= 3"
  },
  {
    "id": 13,
    "question": "How many subjects in safety population reported Grade 2 Diarrhoea?",
    "expected_answer": 9,
    "category": "Complex",
    "sql": "SELECT COUNT(DISTINCT USUBJID) FROM adae\n            WHERE UPPER(AEDECOD) IN ('DIARRHOEA', 'DIARRHEA')\n            AND ATOXGR = 2\n            AND SAFFL = 'Y'"
  },
  {
    "id": 14,
    "question": "How many subjects who are male reported Nausea of Grade 2 or higher?",
    "expected_answer": 4,
    "category": "Complex",
    "sql": "SELECT COUNT(DISTINCT USUBJID) FROM adae\n            WHERE UPPER(AEDECOD) = 'NAUSEA'\n            AND SEX = 'M'\n            AND ATOXGR >= 2"
  }
]