[
  {
    "id": 1,
    "question": "How many subjects are in the Safety Population?",
    "category": "Populations",
    "expected_answer": 232,
    "sql_template": "SELECT COUNT(*) FROM adsl WHERE SAFFL = 'Y'",
    "answer_type": "count",
    "notes": "Basic safety population count",
    "flow_id": null,
    "turn": null
  },
  {
    "id": 2,
    "question": "Count the number of subjects in the ITT population",
    "category": "Populations",
    "expected_answer": 233,
    "sql_template": "SELECT COUNT(*) FROM adsl WHERE ITTFL = 'Y'",
    "answer_type": "count",
    "notes": "Intent-to-treat population",
    "flow_id": null,
    "turn": null
  },
  {
    "id": 3,
    "question": "What is the total number of subjects in the study?",
    "category": "Populations",
    "expected_answer": 339,
    "sql_template": "SELECT COUNT(*) FROM adsl",
    "answer_type": "count",
    "notes": "All subjects",
    "flow_id": null,
    "turn": null
  },
  {
    "id": 4,
    "question": "How many subjects are randomized?",
    "category": "Populations",
    "expected_answer": 233,
    "sql_template": "SELECT COUNT(*) FROM adsl WHERE RANDFL = 'Y'",
    "answer_type": "count",
    "notes": "Randomized subjects",
    "flow_id": null,
    "turn": null
  },
  {
    "id": 5,
    "question": "How many subjects are NOT in the safety population?",
    "category": "Populations",
    "expected_answer": 107,
    "sql_template": "SELECT COUNT(*) FROM adsl WHERE SAFFL = 'N'",
    "answer_type": "count",
    "notes": "Non-safety population",
    "flow_id": null,
    "turn": null
  },
  {
    "id": 6,
    "question": "How many subjects are enrolled but not randomized?",
    "category": "Populations",
    "expected_answer": 0,
    "sql_template": "SELECT COUNT(*) FROM adsl WHERE ENRLFL = 'Y' AND RANDFL = 'N'",
    "answer_type": "count",
    "notes": "Enrolled but not randomized",
    "flow_id": null,
    "turn": null
  },
  {
    "id": 7,
    "question": "How many subjects died during the study?",
    "category": "Populations",
    "expected_answer": 146,
    "sql_template": "SELECT COUNT(*) FROM adsl WHERE DTHFL = 'Y'",
    "answer_type": "count",
    "notes": "Death flag",
    "flow_id": null,
    "turn": null
  },
  {
    "id": 8,
    "question": "How many subjects are in both Safety and ITT populations?",
    "category": "Populations",
    "expected_answer": 232,
    "sql_template": "SELECT COUNT(*) FROM adsl WHERE SAFFL = 'Y' AND ITTFL = 'Y'",
    "answer_type": "count",
    "notes": "Intersection of populations",
    "flow_id": null,
    "turn": null
  },
  {
    "id": 9,
    "question": "How many subjects are in ITT but not in Safety population?",
    "category": "Populations",
    "expected_answer": 1,
    "sql_template": "SELECT COUNT(*) FROM adsl WHERE ITTFL = 'Y' AND SAFFL = 'N'",
    "answer_type": "count",
    "notes": "ITT minus Safety",
    "flow_id": null,
    "turn": null
  },
  {
    "id": 10,
    "question": "How many enrolled subjects are there?",
    "category": "Populations",
    "expected_answer": 233,
    "sql_template": "SELECT COUNT(*) FROM adsl WHERE ENRLFL = 'Y'",
    "answer_type": "count",
    "notes": "All enrolled",
    "flow_id": null,
    "turn": null
  },
  {
    "id": 11,
    "question": "How many male subjects are there?",
    "category": "Demographics",
    "expected_answer": 134,
    "sql_template": "SELECT COUNT(*) FROM adsl WHERE SEX = 'M'",
    "answer_type": "count",
    "notes": "Male count",
    "flow_id": null,
    "turn": null
  },
  {
    "id": 12,
    "question": "Count female patients in Safety Population",
    "category": "Demographics",
    "expected_answer": 138,
    "sql_template": "SELECT COUNT(*) FROM adsl WHERE SEX = 'F' AND SAFFL = 'Y'",
    "answer_type": "count",
    "notes": "Female in safety",
    "flow_id": null,
    "turn": null
  },
  {
    "id": 13,
    "question": "What is the gender distribution of patients?",
    "category": "Demographics",
    "expected_answer": "{'F': 205, 'M': 134}",
    "sql_template": "SELECT SEX, COUNT(*) FROM adsl GROUP BY SEX",
    "answer_type": "distribution",
    "notes": "Sex breakdown",
    "flow_id": null,
    "turn": null
  },
  {
    "id": 14,
    "question": "How many subjects are 65 or older?",
    "category": "Demographics",
    "expected_answer": 122,
    "sql_template": "SELECT COUNT(*) FROM adsl WHERE AGE >= 65",
    "answer_type": "count",
    "notes": "Elderly patients",
    "flow_id": null,
    "turn": null
  },
  {
    "id": 15,
    "question": "How many subjects are under 18?",
    "category": "Demographics",
    "expected_answer": 0,
    "sql_template": "SELECT COUNT(*) FROM adsl WHERE AGE < 18",
    "answer_type": "count",
    "notes": "Pediatric check - likely 0",
    "flow_id": null,
    "turn": null
  },
  {
    "id": 16,
    "question": "How many subjects are between 18 and 65?",
    "category": "Demographics",
    "expected_answer": 217,
    "sql_template": "SELECT COUNT(*) FROM adsl WHERE AGE >= 18 AND AGE < 65",
    "answer_type": "count",
    "notes": "Working age adults",
    "flow_id": null,
    "turn": null
  },
  {
    "id": 17,
    "question": "What is the breakdown of race?",
    "category": "Demographics",
    "expected_answer": "{'ASIAN': 254, 'WHITE': 75, 'BLACK OR AFRICAN AMERICAN': 3, 'UNKNOWN': 2, 'OTHER': 2, 'NOT REPORTED': 2, 'AMERICAN INDIAN OR ALASKA NATIVE': 1}",
    "sql_template": "SELECT RACE, COUNT(*) FROM adsl GROUP BY RACE",
    "answer_type": "distribution",
    "notes": "Race distribution",
    "flow_id": null,
    "turn": null
  },
  {
    "id": 18,
    "question": "How many Asian subjects are in the study?",
    "category": "Demographics",
    "expected_answer": 254,
    "sql_template": "SELECT COUNT(*) FROM adsl WHERE UPPER(RACE) LIKE '%ASIAN%'",
    "answer_type": "count",
    "notes": "Asian subjects",
    "flow_id": null,
    "turn": null
  },
  {
    "id": 19,
    "question": "How many White subjects are in the study?",
    "category": "Demographics",
    "expected_answer": 75,
    "sql_template": "SELECT COUNT(*) FROM adsl WHERE UPPER(RACE) LIKE '%WHITE%'",
    "answer_type": "count",
    "notes": "White subjects",
    "flow_id": null,
    "turn": null
  },
  {
    "id": 20,
    "question": "How many White females are in the study?",
    "category": "Demographics",
    "expected_answer": 54,
    "sql_template": "SELECT COUNT(*) FROM adsl WHERE UPPER(RACE) LIKE '%WHITE%' AND SEX = 'F'",
    "answer_type": "count",
    "notes": "White female intersection",
    "flow_id": null,
    "turn": null
  },
  {
    "id": 21,
    "question": "Show me the gender ratio",
    "category": "Demographics",
    "expected_answer": "{'F': 205, 'M': 134}",
    "sql_template": "SELECT SEX, COUNT(*) FROM adsl GROUP BY SEX",
    "answer_type": "distribution",
    "notes": "Same as Q13",
    "flow_id": null,
    "turn": null
  },
  {
    "id": 22,
    "question": "Count subjects by treatment arm",
    "category": "Demographics",
    "expected_answer": "{'Treatment B': 232, '': 107}",
    "sql_template": "SELECT TRT01A, COUNT(*) FROM adsl WHERE TRT01A != '' GROUP BY TRT01A",
    "answer_type": "distribution",
    "notes": "Treatment distribution",
    "flow_id": null,
    "turn": null
  },
  {
    "id": 23,
    "question": "How many subjects are in Treatment A?",
    "category": "Demographics",
    "expected_answer": 0,
    "sql_template": "SELECT COUNT(*) FROM adsl WHERE TRT01P = 'Treatment A'",
    "answer_type": "count",
    "notes": "Treatment A planned",
    "flow_id": null,
    "turn": null
  },
  {
    "id": 24,
    "question": "How many subjects are in Treatment B?",
    "category": "Demographics",
    "expected_answer": 0,
    "sql_template": "SELECT COUNT(*) FROM adsl WHERE TRT01A = 'Treatment B'",
    "answer_type": "count",
    "notes": "Treatment B actual",
    "flow_id": null,
    "turn": null
  },
  {
    "id": 25,
    "question": "How many subjects are over 75 years old?",
    "category": "Demographics",
    "expected_answer": 12,
    "sql_template": "SELECT COUNT(*) FROM adsl WHERE AGE > 75",
    "answer_type": "count",
    "notes": "Very elderly",
    "flow_id": null,
    "turn": null
  },
  {
    "id": 26,
    "question": "How many subjects reported at least one adverse event?",
    "category": "Adverse Events",
    "expected_answer": 243,
    "sql_template": "SELECT COUNT(DISTINCT USUBJID) FROM adae",
    "answer_type": "count",
    "notes": "Any AE",
    "flow_id": null,
    "turn": null
  },
  {
    "id": 27,
    "question": "How many subjects had serious adverse events (SAE)?",
    "category": "Adverse Events",
    "expected_answer": 96,
    "sql_template": "SELECT COUNT(DISTINCT USUBJID) FROM adae WHERE AESER = 'Y'",
    "answer_type": "count",
    "notes": "SAE subjects",
    "flow_id": null,
    "turn": null
  },
  {
    "id": 28,
    "question": "How many subjects had severe adverse events?",
    "category": "Adverse Events",
    "expected_answer": 55,
    "sql_template": "SELECT COUNT(DISTINCT USUBJID) FROM adae WHERE ATOXGR IN ('4', '5')",
    "answer_type": "count",
    "notes": "Grade 4-5 (severe/life-threatening)",
    "flow_id": null,
    "turn": null
  },
  {
    "id": 29,
    "question": "How many subjects had fatal adverse events?",
    "category": "Adverse Events",
    "expected_answer": 30,
    "sql_template": "SELECT COUNT(DISTINCT USUBJID) FROM adae WHERE AEOUT = 'FATAL'",
    "answer_type": "count",
    "notes": "Fatal outcome",
    "flow_id": null,
    "turn": null
  },
  {
    "id": 30,
    "question": "How many subjects had Headache?",
    "category": "Adverse Events",
    "expected_answer": 21,
    "sql_template": "SELECT COUNT(DISTINCT USUBJID) FROM adae WHERE UPPER(AEDECOD) = 'HEADACHE'",
    "answer_type": "count",
    "notes": "Specific AE term",
    "flow_id": null,
    "turn": null
  },
  {
    "id": 31,
    "question": "Count patients with Nausea",
    "category": "Adverse Events",
    "expected_answer": 82,
    "sql_template": "SELECT COUNT(DISTINCT USUBJID) FROM adae WHERE UPPER(AEDECOD) = 'NAUSEA'",
    "answer_type": "count",
    "notes": "Nausea subjects",
    "flow_id": null,
    "turn": null
  },
  {
    "id": 32,
    "question": "How many subjects reported Vomiting?",
    "category": "Adverse Events",
    "expected_answer": 55,
    "sql_template": "SELECT COUNT(DISTINCT USUBJID) FROM adae WHERE UPPER(AEDECOD) = 'VOMITING'",
    "answer_type": "count",
    "notes": "Vomiting subjects",
    "flow_id": null,
    "turn": null
  },
  {
    "id": 33,
    "question": "How many subjects had Diarrhoea?",
    "category": "Adverse Events",
    "expected_answer": 23,
    "sql_template": "SELECT COUNT(DISTINCT USUBJID) FROM adae WHERE UPPER(AEDECOD) IN ('DIARRHOEA', 'DIARRHEA')",
    "answer_type": "count",
    "notes": "Diarrhoea (UK/US spelling)",
    "flow_id": null,
    "turn": null
  },
  {
    "id": 34,
    "question": "How many subjects had Pyrexia?",
    "category": "Adverse Events",
    "expected_answer": 32,
    "sql_template": "SELECT COUNT(DISTINCT USUBJID) FROM adae WHERE UPPER(AEDECOD) = 'PYREXIA'",
    "answer_type": "count",
    "notes": "Fever",
    "flow_id": null,
    "turn": null
  },
  {
    "id": 35,
    "question": "How many subjects had Fatigue?",
    "category": "Adverse Events",
    "expected_answer": 34,
    "sql_template": "SELECT COUNT(DISTINCT USUBJID) FROM adae WHERE UPPER(AEDECOD) = 'FATIGUE'",
    "answer_type": "count",
    "notes": "Fatigue subjects",
    "flow_id": null,
    "turn": null
  },
  {
    "id": 36,
    "question": "Count subjects with Constipation",
    "category": "Adverse Events",
    "expected_answer": 79,
    "sql_template": "SELECT COUNT(DISTINCT USUBJID) FROM adae WHERE UPPER(AEDECOD) = 'CONSTIPATION'",
    "answer_type": "count",
    "notes": "Constipation subjects",
    "flow_id": null,
    "turn": null
  },
  {
    "id": 37,
    "question": "How many subjects had Cough?",
    "category": "Adverse Events",
    "expected_answer": 45,
    "sql_template": "SELECT COUNT(DISTINCT USUBJID) FROM adae WHERE UPPER(AEDECOD) = 'COUGH'",
    "answer_type": "count",
    "notes": "Cough subjects",
    "flow_id": null,
    "turn": null
  },
  {
    "id": 38,
    "question": "How many subjects had Anaemia?",
    "category": "Adverse Events",
    "expected_answer": 140,
    "sql_template": "SELECT COUNT(DISTINCT USUBJID) FROM adae WHERE UPPER(AEDECOD) IN ('ANAEMIA', 'ANEMIA')",
    "answer_type": "count",
    "notes": "Anaemia (UK/US spelling)",
    "flow_id": null,
    "turn": null
  },
  {
    "id": 39,
    "question": "Count subjects with Back pain",
    "category": "Adverse Events",
    "expected_answer": 29,
    "sql_template": "SELECT COUNT(DISTINCT USUBJID) FROM adae WHERE UPPER(AEDECOD) = 'BACK PAIN'",
    "answer_type": "count",
    "notes": "Back pain subjects",
    "flow_id": null,
    "turn": null
  },
  {
    "id": 40,
    "question": "How many subjects had Grade 3 adverse events?",
    "category": "Adverse Events",
    "expected_answer": 138,
    "sql_template": "SELECT COUNT(DISTINCT USUBJID) FROM adae WHERE ATOXGR = '3'",
    "answer_type": "count",
    "notes": "Grade 3 subjects",
    "flow_id": null,
    "turn": null
  },
  {
    "id": 41,
    "question": "How many subjects had Grade 4 or 5 adverse events?",
    "category": "Adverse Events",
    "expected_answer": 55,
    "sql_template": "SELECT COUNT(DISTINCT USUBJID) FROM adae WHERE ATOXGR IN ('4', '5')",
    "answer_type": "count",
    "notes": "Grade 4-5 subjects",
    "flow_id": null,
    "turn": null
  },
  {
    "id": 42,
    "question": "Count subjects with related adverse events",
    "category": "Adverse Events",
    "expected_answer": 243,
    "sql_template": "SELECT COUNT(DISTINCT USUBJID) FROM adae WHERE UPPER(AEREL) LIKE '%RELATED%' AND UPPER(AEREL) NOT LIKE '%NOT RELATED%' AND UPPER(AEREL) NOT LIKE '%UNLIKELY%'",
    "answer_type": "count",
    "notes": "Treatment-related AEs",
    "flow_id": null,
    "turn": null
  },
  {
    "id": 43,
    "question": "How many subjects had possibly related AEs?",
    "category": "Adverse Events",
    "expected_answer": 161,
    "sql_template": "SELECT COUNT(DISTINCT USUBJID) FROM adae WHERE UPPER(AEREL) = 'POSSIBLY RELATED'",
    "answer_type": "count",
    "notes": "Possibly related",
    "flow_id": null,
    "turn": null
  },
  {
    "id": 44,
    "question": "How many subjects had unrelated AEs?",
    "category": "Adverse Events",
    "expected_answer": 194,
    "sql_template": "SELECT COUNT(DISTINCT USUBJID) FROM adae WHERE UPPER(AEREL) = 'NOT RELATED'",
    "answer_type": "count",
    "notes": "Not related",
    "flow_id": null,
    "turn": null
  },
  {
    "id": 45,
    "question": "What are the most common adverse events?",
    "category": "Adverse Events",
    "expected_answer": "{'White blood cell count decreased': 342, 'Neutrophil count decreased': 305, 'Anaemia': 249, 'Platelet count decreased': 193, 'Aspartate aminotransferase increased': 148, 'Alanine aminotransferase increased': 140, 'Nausea': 130, 'Constipation': 97, 'Decreased appetite': 87, 'Vomiting': 83}",
    "sql_template": "SELECT AEDECOD, COUNT(*) FROM adae GROUP BY AEDECOD ORDER BY COUNT(*) DESC LIMIT 10",
    "answer_type": "distribution",
    "notes": "Top AEs",
    "flow_id": null,
    "turn": null
  },
  {
    "id": 46,
    "question": "List the top 5 AEs by frequency",
    "category": "Adverse Events",
    "expected_answer": "{'White blood cell count decreased': 342, 'Neutrophil count decreased': 305, 'Anaemia': 249, 'Platelet count decreased': 193, 'Aspartate aminotransferase increased': 148}",
    "sql_template": "SELECT AEDECOD, COUNT(*) FROM adae GROUP BY AEDECOD ORDER BY COUNT(*) DESC LIMIT 5",
    "answer_type": "distribution",
    "notes": "Top 5 AEs",
    "flow_id": null,
    "turn": null
  },
  {
    "id": 47,
    "question": "How many subjects had gastrointestinal disorders?",
    "category": "Adverse Events",
    "expected_answer": 163,
    "sql_template": "SELECT COUNT(DISTINCT USUBJID) FROM adae WHERE UPPER(AEBODSYS) LIKE '%GASTROINTESTINAL%'",
    "answer_type": "count",
    "notes": "GI SOC",
    "flow_id": null,
    "turn": null
  },
  {
    "id": 48,
    "question": "Count subjects with cardiac disorders",
    "category": "Adverse Events",
    "expected_answer": 41,
    "sql_template": "SELECT COUNT(DISTINCT USUBJID) FROM adae WHERE UPPER(AEBODSYS) LIKE '%CARDIAC%'",
    "answer_type": "count",
    "notes": "Cardiac SOC",
    "flow_id": null,
    "turn": null
  },
  {
    "id": 49,
    "question": "How many subjects had respiratory disorders?",
    "category": "Adverse Events",
    "expected_answer": 97,
    "sql_template": "SELECT COUNT(DISTINCT USUBJID) FROM adae WHERE UPPER(AEBODSYS) LIKE '%RESPIRATORY%'",
    "answer_type": "count",
    "notes": "Respiratory SOC",
    "flow_id": null,
    "turn": null
  },
  {
    "id": 50,
    "question": "How many subjects had nervous system disorders?",
    "category": "Adverse Events",
    "expected_answer": 66,
    "sql_template": "SELECT COUNT(DISTINCT USUBJID) FROM adae WHERE UPPER(AEBODSYS) LIKE '%NERVOUS%'",
    "answer_type": "count",
    "notes": "Nervous system SOC",
    "flow_id": null,
    "turn": null
  },
  {
    "id": 51,
    "question": "How many subjects had skin disorders?",
    "category": "Adverse Events",
    "expected_answer": 58,
    "sql_template": "SELECT COUNT(DISTINCT USUBJID) FROM adae WHERE UPPER(AEBODSYS) LIKE '%SKIN%'",
    "answer_type": "count",
    "notes": "Skin SOC",
    "flow_id": null,
    "turn": null
  },
  {
    "id": 52,
    "question": "How many subjects had infections?",
    "category": "Adverse Events",
    "expected_answer": 87,
    "sql_template": "SELECT COUNT(DISTINCT USUBJID) FROM adae WHERE UPPER(AEBODSYS) LIKE '%INFECTION%'",
    "answer_type": "count",
    "notes": "Infections SOC",
    "flow_id": null,
    "turn": null
  },
  {
    "id": 53,
    "question": "How many treatment-emergent adverse events occurred?",
    "category": "Adverse Events",
    "expected_answer": 3946,
    "sql_template": "SELECT COUNT(*) FROM adae WHERE TRTEMFL = 'Y'",
    "answer_type": "count",
    "notes": "TEAE count",
    "flow_id": null,
    "turn": null
  },
  {
    "id": 54,
    "question": "How many adverse event records are there in total?",
    "category": "Adverse Events",
    "expected_answer": 4332,
    "sql_template": "SELECT COUNT(*) FROM adae",
    "answer_type": "count",
    "notes": "Total AE records",
    "flow_id": null,
    "turn": null
  },
  {
    "id": 55,
    "question": "How many subjects had Asthenia?",
    "category": "Adverse Events",
    "expected_answer": 38,
    "sql_template": "SELECT COUNT(DISTINCT USUBJID) FROM adae WHERE UPPER(AEDECOD) = 'ASTHENIA'",
    "answer_type": "count",
    "notes": "Asthenia subjects",
    "flow_id": null,
    "turn": null
  },
  {
    "id": 56,
    "question": "How many females over 65 had serious adverse events?",
    "category": "Complex Logic",
    "expected_answer": 22,
    "sql_template": "SELECT COUNT(DISTINCT USUBJID) FROM adae WHERE SEX = 'F' AND AGE >= 65 AND AESER = 'Y'",
    "answer_type": "count",
    "notes": "Female + elderly + SAE",
    "flow_id": null,
    "turn": null
  },
  {
    "id": 57,
    "question": "Count male subjects in ITT with Grade 3+ Nausea",
    "category": "Complex Logic",
    "expected_answer": 0,
    "sql_template": "SELECT COUNT(DISTINCT USUBJID) FROM adae WHERE SEX = 'M' AND ITTFL = 'Y' AND UPPER(AEDECOD) = 'NAUSEA' AND ATOXGR IN ('3', '4', '5')",
    "answer_type": "count",
    "notes": "Male + ITT + Nausea Grade 3+",
    "flow_id": null,
    "turn": null
  },
  {
    "id": 58,
    "question": "How many subjects in Safety pop had related Anaemia?",
    "category": "Complex Logic",
    "expected_answer": 140,
    "sql_template": "SELECT COUNT(DISTINCT USUBJID) FROM adae WHERE SAFFL = 'Y' AND UPPER(AEDECOD) IN ('ANAEMIA', 'ANEMIA') AND UPPER(AEREL) NOT IN ('NOT RELATED', 'UNLIKELY RELATED')",
    "answer_type": "count",
    "notes": "Safety + Anaemia + Related",
    "flow_id": null,
    "turn": null
  },
  {
    "id": 59,
    "question": "Show subjects who had both Nausea and Vomiting",
    "category": "Complex Logic",
    "expected_answer": 4332,
    "sql_template": "SELECT COUNT(DISTINCT a.USUBJID) FROM adae a WHERE a.USUBJID IN (SELECT USUBJID FROM adae WHERE UPPER(AEDECOD) = 'NAUSEA') AND a.USUBJID IN (SELECT USUBJID FROM adae WHERE UPPER(AEDECOD) = 'VOMITING')",
    "answer_type": "count",
    "notes": "Intersection of two AEs",
    "flow_id": null,
    "turn": null
  },
  {
    "id": 60,
    "question": "How many subjects had either Vomiting or Diarrhoea?",
    "category": "Complex Logic",
    "expected_answer": 71,
    "sql_template": "SELECT COUNT(DISTINCT USUBJID) FROM adae WHERE UPPER(AEDECOD) IN ('VOMITING', 'DIARRHOEA', 'DIARRHEA')",
    "answer_type": "count",
    "notes": "Union of two AEs",
    "flow_id": null,
    "turn": null
  },
  {
    "id": 61,
    "question": "Count White females with serious SAEs",
    "category": "Complex Logic",
    "expected_answer": 12,
    "sql_template": "SELECT COUNT(DISTINCT USUBJID) FROM adae WHERE UPPER(RACE) LIKE '%WHITE%' AND SEX = 'F' AND AESER = 'Y'",
    "answer_type": "count",
    "notes": "Race + Sex + SAE",
    "flow_id": null,
    "turn": null
  },
  {
    "id": 62,
    "question": "How many subjects under 40 had cardiac events?",
    "category": "Complex Logic",
    "expected_answer": 1,
    "sql_template": "SELECT COUNT(DISTINCT USUBJID) FROM adae WHERE AGE < 40 AND UPPER(AEBODSYS) LIKE '%CARDIAC%'",
    "answer_type": "count",
    "notes": "Age + SOC",
    "flow_id": null,
    "turn": null
  },
  {
    "id": 63,
    "question": "How many elderly subjects (over 75) had Fatigue?",
    "category": "Complex Logic",
    "expected_answer": 3,
    "sql_template": "SELECT COUNT(DISTINCT USUBJID) FROM adae WHERE AGE > 75 AND UPPER(AEDECOD) = 'FATIGUE'",
    "answer_type": "count",
    "notes": "Elderly + specific AE",
    "flow_id": null,
    "turn": null
  },
  {
    "id": 64,
    "question": "How many female patients had adverse events?",
    "category": "Complex Logic",
    "expected_answer": 145,
    "sql_template": "SELECT COUNT(DISTINCT USUBJID) FROM adae WHERE SEX = 'F'",
    "answer_type": "count",
    "notes": "Female + any AE",
    "flow_id": null,
    "turn": null
  },
  {
    "id": 65,
    "question": "How many subjects had more than 5 adverse events?",
    "category": "Complex Logic",
    "expected_answer": 4332,
    "sql_template": "SELECT COUNT(*) FROM (SELECT USUBJID, COUNT(*) as cnt FROM adae GROUP BY USUBJID HAVING COUNT(*) > 5) subq",
    "answer_type": "count",
    "notes": "Aggregation query",
    "flow_id": null,
    "turn": null
  },
  {
    "id": 66,
    "question": "How many patients had headake?",
    "category": "Fuzzy Matching",
    "expected_answer": 21,
    "sql_template": "SELECT COUNT(DISTINCT USUBJID) FROM adae WHERE UPPER(AEDECOD) = 'HEADACHE'",
    "answer_type": "count",
    "notes": "Typo: headake -> Headache",
    "flow_id": null,
    "turn": null
  },
  {
    "id": 67,
    "question": "Count subjects with nausia",
    "category": "Fuzzy Matching",
    "expected_answer": 82,
    "sql_template": "SELECT COUNT(DISTINCT USUBJID) FROM adae WHERE UPPER(AEDECOD) = 'NAUSEA'",
    "answer_type": "count",
    "notes": "Typo: nausia -> Nausea",
    "flow_id": null,
    "turn": null
  },
  {
    "id": 68,
    "question": "How many had diarrhea?",
    "category": "Fuzzy Matching",
    "expected_answer": 23,
    "sql_template": "SELECT COUNT(DISTINCT USUBJID) FROM adae WHERE UPPER(AEDECOD) IN ('DIARRHOEA', 'DIARRHEA')",
    "answer_type": "count",
    "notes": "US spelling",
    "flow_id": null,
    "turn": null
  },
  {
    "id": 69,
    "question": "How many had diarrhoea?",
    "category": "Fuzzy Matching",
    "expected_answer": 23,
    "sql_template": "SELECT COUNT(DISTINCT USUBJID) FROM adae WHERE UPPER(AEDECOD) IN ('DIARRHOEA', 'DIARRHEA')",
    "answer_type": "count",
    "notes": "UK spelling",
    "flow_id": null,
    "turn": null
  },
  {
    "id": 70,
    "question": "Count cases of anemia",
    "category": "Fuzzy Matching",
    "expected_answer": 140,
    "sql_template": "SELECT COUNT(DISTINCT USUBJID) FROM adae WHERE UPPER(AEDECOD) IN ('ANAEMIA', 'ANEMIA')",
    "answer_type": "count",
    "notes": "US spelling for anaemia",
    "flow_id": null,
    "turn": null
  },
  {
    "id": 71,
    "question": "How many ppl had SAEs?",
    "category": "Fuzzy Matching",
    "expected_answer": 96,
    "sql_template": "SELECT COUNT(DISTINCT USUBJID) FROM adae WHERE AESER = 'Y'",
    "answer_type": "count",
    "notes": "Slang: ppl -> people",
    "flow_id": null,
    "turn": null
  },
  {
    "id": 72,
    "question": "How many participants had belly pain?",
    "category": "Fuzzy Matching",
    "expected_answer": 13,
    "sql_template": "SELECT COUNT(DISTINCT USUBJID) FROM adae WHERE UPPER(AEDECOD) = 'ABDOMINAL PAIN'",
    "answer_type": "count",
    "notes": "Mapping: belly pain -> Abdominal pain",
    "flow_id": null,
    "turn": null
  },
  {
    "id": 73,
    "question": "Count occurrences of low blood cell count",
    "category": "Fuzzy Matching",
    "expected_answer": 101,
    "sql_template": "SELECT COUNT(DISTINCT USUBJID) FROM adae WHERE UPPER(AEDECOD) = 'WHITE BLOOD CELL COUNT DECREASED'",
    "answer_type": "count",
    "notes": "Mapping to WBC decreased",
    "flow_id": null,
    "turn": null
  },
  {
    "id": 74,
    "question": "How many subjects had decreased appetite?",
    "category": "Fuzzy Matching",
    "expected_answer": 63,
    "sql_template": "SELECT COUNT(DISTINCT USUBJID) FROM adae WHERE UPPER(AEDECOD) = 'DECREASED APPETITE'",
    "answer_type": "count",
    "notes": "Direct match",
    "flow_id": null,
    "turn": null
  },
  {
    "id": 75,
    "question": "How many subjects had fever?",
    "category": "Fuzzy Matching",
    "expected_answer": 32,
    "sql_template": "SELECT COUNT(DISTINCT USUBJID) FROM adae WHERE UPPER(AEDECOD) = 'PYREXIA'",
    "answer_type": "count",
    "notes": "Mapping: fever -> Pyrexia",
    "flow_id": null,
    "turn": null
  },
  {
    "id": 76,
    "question": "How many subjects had Ebola?",
    "category": "Negative Testing",
    "expected_answer": 0,
    "sql_template": "SELECT COUNT(DISTINCT USUBJID) FROM adae WHERE UPPER(AEDECOD) = 'EBOLA'",
    "answer_type": "count",
    "notes": "Should be 0 - non-existent AE",
    "flow_id": null,
    "turn": null
  },
  {
    "id": 77,
    "question": "Count subjects with Grade 10 AEs",
    "category": "Negative Testing",
    "expected_answer": 0,
    "sql_template": "SELECT COUNT(DISTINCT USUBJID) FROM adae WHERE ATOXGR = '10'",
    "answer_type": "count",
    "notes": "Should be 0 - impossible grade",
    "flow_id": null,
    "turn": null
  },
  {
    "id": 78,
    "question": "How many subjects had FakeDisease123?",
    "category": "Negative Testing",
    "expected_answer": 0,
    "sql_template": "SELECT COUNT(DISTINCT USUBJID) FROM adae WHERE UPPER(AEDECOD) = 'FAKEDISEASE123'",
    "answer_type": "count",
    "notes": "Should be 0 - non-existent term",
    "flow_id": null,
    "turn": null
  },
  {
    "id": 79,
    "question": "How many subjects in the 'Moon' population?",
    "category": "Negative Testing",
    "expected_answer": 0,
    "sql_template": "SELECT 0",
    "answer_type": "count",
    "notes": "Invalid population - should handle gracefully",
    "flow_id": null,
    "turn": null
  },
  {
    "id": 80,
    "question": "Count subjects with adverse events from Mars",
    "category": "Negative Testing",
    "expected_answer": 0,
    "sql_template": "SELECT 0",
    "answer_type": "count",
    "notes": "Nonsensical query",
    "flow_id": null,
    "turn": null
  },
  {
    "id": 81,
    "question": "How many subjects are in the Safety Population?",
    "category": "Conversational Flow",
    "expected_answer": 232,
    "sql_template": "SELECT COUNT(*) FROM adsl WHERE SAFFL = 'Y'",
    "answer_type": "count",
    "notes": "Flow 1 Turn 1: Safety population",
    "flow_id": "FLOW-001",
    "turn": 1
  },
  {
    "id": 82,
    "question": "How many of them are Female?",
    "category": "Conversational Flow",
    "expected_answer": 138,
    "sql_template": "SELECT COUNT(*) FROM adsl WHERE SAFFL = 'Y' AND SEX = 'F'",
    "answer_type": "count",
    "notes": "Flow 1 Turn 2: Safety + Female",
    "flow_id": "FLOW-001",
    "turn": 2
  },
  {
    "id": 83,
    "question": "Out of those, how many are over 65?",
    "category": "Conversational Flow",
    "expected_answer": 47,
    "sql_template": "SELECT COUNT(*) FROM adsl WHERE SAFFL = 'Y' AND SEX = 'F' AND AGE > 65",
    "answer_type": "count",
    "notes": "Flow 1 Turn 3: Safety + Female + Elderly",
    "flow_id": "FLOW-001",
    "turn": 3
  },
  {
    "id": 84,
    "question": "List them",
    "category": "Conversational Flow",
    "expected_answer": 47,
    "sql_template": "SELECT USUBJID, AGE, SEX FROM adsl WHERE SAFFL = 'Y' AND SEX = 'F' AND AGE > 65",
    "answer_type": "list",
    "notes": "Flow 1 Turn 4: List the subjects",
    "flow_id": "FLOW-001",
    "turn": 4
  },
  {
    "id": 85,
    "question": "How many subjects had Anaemia?",
    "category": "Conversational Flow",
    "expected_answer": 140,
    "sql_template": "SELECT COUNT(DISTINCT USUBJID) FROM adae WHERE UPPER(AEDECOD) IN ('ANAEMIA', 'ANEMIA')",
    "answer_type": "count",
    "notes": "Flow 2 Turn 1: Anaemia subjects",
    "flow_id": "FLOW-002",
    "turn": 1
  },
  {
    "id": 86,
    "question": "How many of these were Grade 3?",
    "category": "Conversational Flow",
    "expected_answer": 34,
    "sql_template": "SELECT COUNT(DISTINCT USUBJID) FROM adae WHERE UPPER(AEDECOD) IN ('ANAEMIA', 'ANEMIA') AND ATOXGR = '3'",
    "answer_type": "count",
    "notes": "Flow 2 Turn 2: Anaemia + Grade 3",
    "flow_id": "FLOW-002",
    "turn": 2
  },
  {
    "id": 87,
    "question": "Are any of them serious?",
    "category": "Conversational Flow",
    "expected_answer": 6,
    "sql_template": "SELECT COUNT(DISTINCT USUBJID) FROM adae WHERE UPPER(AEDECOD) IN ('ANAEMIA', 'ANEMIA') AND ATOXGR = '3' AND AESER = 'Y'",
    "answer_type": "count",
    "notes": "Flow 2 Turn 3: Anaemia + Grade 3 + Serious",
    "flow_id": "FLOW-002",
    "turn": 3
  },
  {
    "id": 88,
    "question": "Show me the details",
    "category": "Conversational Flow",
    "expected_answer": 6,
    "sql_template": "SELECT USUBJID, AEDECOD, ATOXGR, AESER FROM adae WHERE UPPER(AEDECOD) IN ('ANAEMIA', 'ANEMIA') AND ATOXGR = '3' AND AESER = 'Y'",
    "answer_type": "list",
    "notes": "Flow 2 Turn 4: List details",
    "flow_id": "FLOW-002",
    "turn": 4
  },
  {
    "id": 89,
    "question": "How many subjects are in the ITT population?",
    "category": "Conversational Flow",
    "expected_answer": 233,
    "sql_template": "SELECT COUNT(*) FROM adsl WHERE ITTFL = 'Y'",
    "answer_type": "count",
    "notes": "Flow 3 Turn 1: ITT population",
    "flow_id": "FLOW-003",
    "turn": 1
  },
  {
    "id": 90,
    "question": "How many of these had adverse events?",
    "category": "Conversational Flow",
    "expected_answer": 231,
    "sql_template": "SELECT COUNT(DISTINCT USUBJID) FROM adae WHERE ITTFL = 'Y'",
    "answer_type": "count",
    "notes": "Flow 3 Turn 2: ITT + any AE",
    "flow_id": "FLOW-003",
    "turn": 2
  },
  {
    "id": 91,
    "question": "Which AEs were most common for them?",
    "category": "Conversational Flow",
    "expected_answer": "{'White blood cell count decreased': 342, 'Neutrophil count decreased': 305, 'Anaemia': 249, 'Platelet count decreased': 193, 'Aspartate aminotransferase increased': 147}",
    "sql_template": "SELECT AEDECOD, COUNT(*) FROM adae WHERE ITTFL = 'Y' GROUP BY AEDECOD ORDER BY COUNT(*) DESC LIMIT 5",
    "answer_type": "distribution",
    "notes": "Flow 3 Turn 3: Top AEs in ITT",
    "flow_id": "FLOW-003",
    "turn": 3
  },
  {
    "id": 92,
    "question": "List the serious ones",
    "category": "Conversational Flow",
    "expected_answer": 143,
    "sql_template": "SELECT USUBJID, AEDECOD FROM adae WHERE ITTFL = 'Y' AND AESER = 'Y'",
    "answer_type": "list",
    "notes": "Flow 3 Turn 4: Serious AEs in ITT",
    "flow_id": "FLOW-003",
    "turn": 4
  },
  {
    "id": 93,
    "question": "Show me all subjects with Nausea",
    "category": "Conversational Flow",
    "expected_answer": 130,
    "sql_template": "SELECT DISTINCT USUBJID FROM adae WHERE UPPER(AEDECOD) = 'NAUSEA'",
    "answer_type": "list",
    "notes": "Flow 4 Turn 1: Nausea subjects",
    "flow_id": "FLOW-004",
    "turn": 1
  },
  {
    "id": 94,
    "question": "Filter to only those where it was related to treatment",
    "category": "Conversational Flow",
    "expected_answer": 130,
    "sql_template": "SELECT DISTINCT USUBJID FROM adae WHERE UPPER(AEDECOD) = 'NAUSEA' AND UPPER(AEREL) NOT IN ('NOT RELATED', 'UNLIKELY RELATED')",
    "answer_type": "list",
    "notes": "Flow 4 Turn 2: Nausea + Related",
    "flow_id": "FLOW-004",
    "turn": 2
  },
  {
    "id": 95,
    "question": "And only if it was severe",
    "category": "Conversational Flow",
    "expected_answer": 2,
    "sql_template": "SELECT DISTINCT USUBJID FROM adae WHERE UPPER(AEDECOD) = 'NAUSEA' AND UPPER(AEREL) NOT IN ('NOT RELATED', 'UNLIKELY RELATED') AND ATOXGR IN ('3', '4', '5')",
    "answer_type": "list",
    "notes": "Flow 4 Turn 3: Nausea + Related + Severe",
    "flow_id": "FLOW-004",
    "turn": 3
  },
  {
    "id": 96,
    "question": "Count them by gender",
    "category": "Conversational Flow",
    "expected_answer": "{'F': 2}",
    "sql_template": "SELECT SEX, COUNT(DISTINCT USUBJID) FROM adae WHERE UPPER(AEDECOD) = 'NAUSEA' AND UPPER(AEREL) NOT IN ('NOT RELATED', 'UNLIKELY RELATED') AND ATOXGR IN ('3', '4', '5') GROUP BY SEX",
    "answer_type": "distribution",
    "notes": "Flow 4 Turn 4: Count by gender",
    "flow_id": "FLOW-004",
    "turn": 4
  },
  {
    "id": 97,
    "question": "How many males had serious adverse events?",
    "category": "Conversational Flow",
    "expected_answer": 40,
    "sql_template": "SELECT COUNT(DISTINCT USUBJID) FROM adae WHERE SEX = 'M' AND AESER = 'Y'",
    "answer_type": "count",
    "notes": "Flow 5 Turn 1: Male + SAE",
    "flow_id": "FLOW-005",
    "turn": 1
  },
  {
    "id": 98,
    "question": "Of these, how many were over 65?",
    "category": "Conversational Flow",
    "expected_answer": 14,
    "sql_template": "SELECT COUNT(DISTINCT USUBJID) FROM adae WHERE SEX = 'M' AND AESER = 'Y' AND AGE > 65",
    "answer_type": "count",
    "notes": "Flow 5 Turn 2: Male + SAE + Elderly",
    "flow_id": "FLOW-005",
    "turn": 2
  },
  {
    "id": 99,
    "question": "What were the most common serious AEs for this group?",
    "category": "Conversational Flow",
    "expected_answer": "{'White blood cell count decreased': 2, 'Platelet count decreased': 1, 'Myocardial infarction': 1, 'Disease progression': 1, 'Neutrophil count decreased': 1}",
    "sql_template": "SELECT AEDECOD, COUNT(*) FROM adae WHERE SEX = 'M' AND AESER = 'Y' AND AGE > 65 GROUP BY AEDECOD ORDER BY COUNT(*) DESC LIMIT 5",
    "answer_type": "distribution",
    "notes": "Flow 5 Turn 3: Top SAEs for elderly males",
    "flow_id": "FLOW-005",
    "turn": 3
  },
  {
    "id": 100,
    "question": "List all the events with details",
    "category": "Conversational Flow",
    "expected_answer": 19,
    "sql_template": "SELECT USUBJID, AEDECOD, ATOXGR, AESER FROM adae WHERE SEX = 'M' AND AESER = 'Y' AND AGE > 65",
    "answer_type": "list",
    "notes": "Flow 5 Turn 4: List details",
    "flow_id": "FLOW-005",
    "turn": 4
  }
]